'File neuburger liquid milk_2_2016Ò»ÔÂ28_1108.xls
'Part ID neuburger liquid milk_2
'Scan Created 2016/1/28 11:08:12
'Instrument S1-00205
'Version 1.5.7
'Integration Time 10100 µs
'Number of Scans 50
'Units Absorbance
'Thermistor 48.72
Wavelength	Absorbance	Normalized	100%	dark	Raw 1	Native Wvl	Native Norm	Native 100%	Native dark	Native 1
908.10000	0.63071	0.23404	3631.60170	887.38072	1528.33044	906.26400	0.22340	3726.00000	888.00000	1522.00000
914.29435	0.57141	0.26828	3355.15374	866.53591	1534.58625	912.45437	0.25853	3426.00000	877.00000	1536.00000
920.48871	0.52386	0.29932	3277.49982	884.81219	1600.96698	918.64474	0.29023	3268.00000	863.00000	1561.00000
926.68306	0.48173	0.32981	3343.45004	929.35238	1725.48605	924.83511	0.32070	3337.00000	936.00000	1706.00000
932.87742	0.44513	0.35882	3383.28304	868.28464	1770.79852	931.02548	0.35059	3352.00000	879.00000	1746.00000
939.07177	0.41954	0.38059	3611.37944	894.13722	1928.26522	937.21585	0.37524	3529.00000	880.00000	1874.00000
945.26613	0.40766	0.39115	3844.72639	899.10262	2051.29995	943.40622	0.38910	3792.00000	911.00000	2032.00000
951.46048	0.41055	0.38855	3990.33118	866.12413	2080.03757	949.59659	0.39109	3940.00000	864.00000	2067.00000
957.65484	0.42538	0.37551	4200.05980	902.17596	2140.46663	955.78696	0.37944	4134.00000	895.00000	2124.00000
963.84919	0.43366	0.36842	4353.84452	879.91433	2159.89487	961.97733	0.36928	4324.00000	893.00000	2160.00000
970.04355	0.43395	0.36818	4508.91214	907.31519	2233.25520	968.16770	0.36847	4436.00000	878.00000	2189.00000
976.23790	0.43490	0.36737	4705.59533	937.65994	2321.91786	974.35807	0.36723	4678.00000	961.00000	2326.00000
982.43226	0.43196	0.36986	4802.55705	859.82822	2318.08040	980.54844	0.36892	4744.00000	857.00000	2291.00000
988.62661	0.42788	0.37335	5056.66426	916.85736	2462.42719	986.73881	0.37224	4990.00000	912.00000	2430.00000
994.82097	0.42343	0.37719	5256.24217	876.58448	2528.63295	992.92918	0.37599	5187.00000	889.00000	2505.00000
1001.01532	0.41929	0.38081	5512.58508	883.10465	2645.92217	999.11955	0.37979	5435.00000	872.00000	2605.00000
1007.20968	0.41339	0.38602	5788.50166	898.57481	2786.34181	1005.30992	0.38384	5696.00000	905.00000	2744.00000
1013.40403	0.40075	0.39742	6072.99229	882.74563	2945.29626	1011.50029	0.39324	5996.00000	877.00000	2890.00000
1019.59839	0.38590	0.41125	6314.91830	932.50172	3146.09734	1017.69066	0.40734	6234.00000	919.00000	3084.00000
1025.79274	0.37464	0.42205	6573.69285	922.56055	3307.57279	1023.88103	0.41887	6501.00000	936.00000	3267.00000
1031.98710	0.36369	0.43282	6822.60659	893.07597	3459.52401	1030.07140	0.42933	6736.00000	892.00000	3401.00000
1038.18145	0.35263	0.44398	7091.93867	885.35218	3640.95354	1036.26177	0.44069	7019.00000	899.00000	3596.00000
1044.37581	0.34413	0.45276	7363.86368	859.13309	3804.24177	1042.45214	0.45037	7261.00000	853.00000	3739.00000
1050.57016	0.33801	0.45918	7715.60572	899.67643	4029.44230	1048.64251	0.45730	7616.00000	894.00000	3968.00000
1056.76452	0.33311	0.46440	7990.08201	879.28988	4181.55262	1054.83288	0.46295	7906.00000	888.00000	4137.00000
1062.95887	0.33042	0.46729	8290.90811	881.38538	4343.74131	1061.02325	0.46672	8190.00000	873.00000	4288.00000
1069.15323	0.33026	0.46745	8594.49516	891.34108	4492.21665	1067.21362	0.46761	8509.00000	898.00000	4457.00000
1075.34758	0.33185	0.46575	8869.42411	866.08467	4593.63985	1073.40399	0.46649	8775.00000	867.00000	4556.00000
1081.54194	0.33528	0.46208	9180.37064	878.57490	4714.71461	1079.59436	0.46346	9087.00000	877.00000	4682.00000
1087.73629	0.34108	0.45595	9518.08432	912.82879	4836.38147	1085.78473	0.45820	9397.00000	892.00000	4789.00000
1093.93065	0.34881	0.44791	9883.21965	935.27892	4943.21205	1091.97510	0.45049	9784.00000	947.00000	4928.00000
1100.12500	0.35772	0.43881	10189.43579	874.75904	4962.05425	1098.16547	0.44193	10081.00000	885.00000	4949.00000
1106.31935	0.36774	0.42881	10571.21947	880.27745	5035.88770	1104.35584	0.43184	10451.00000	878.00000	5012.00000
1112.51371	0.37719	0.41958	10942.70823	878.68148	5101.30085	1110.54621	0.42257	10824.00000	880.00000	5082.00000
1118.70806	0.38907	0.40825	11327.28901	880.36626	5145.36475	1116.73658	0.41230	11203.00000	878.00000	5135.00000
1124.90242	0.40694	0.39180	11737.96513	895.13068	5143.42295	1122.92695	0.39774	11603.00000	890.00000	5151.00000
1131.09677	0.43499	0.36729	12159.20082	894.20587	5031.57466	1129.11732	0.37622	12028.00000	899.00000	5086.00000
1137.29113	0.47532	0.33472	12517.91825	858.91114	4761.63759	1135.30769	0.34564	12413.00000	872.00000	4861.00000
1143.48548	0.51980	0.30213	12902.53527	854.78999	4494.55548	1141.49806	0.31195	12758.00000	846.00000	4562.00000
1149.67984	0.55563	0.27821	13402.02972	901.50594	4379.42916	1147.68843	0.28464	13245.00000	889.00000	4406.00000
1155.87419	0.57816	0.26414	13861.10201	893.85769	4318.97902	1153.87880	0.26792	13715.00000	905.00000	4337.00000
1162.06855	0.59201	0.25585	14347.55669	869.15501	4317.67261	1160.06917	0.25802	14182.00000	869.00000	4304.00000
1168.26290	0.59982	0.25129	14858.78867	902.05632	4409.32449	1166.25954	0.25250	14700.00000	890.00000	4377.00000
1174.45726	0.60542	0.24808	15318.77020	908.12217	4483.02068	1172.44991	0.24912	15172.00000	914.00000	4466.00000
1180.65161	0.61132	0.24473	15767.36224	863.24000	4510.66134	1178.64028	0.24581	15622.00000	879.00000	4503.00000
1186.84597	0.61674	0.24169	16257.21997	856.02131	4578.33615	1184.83065	0.24260	16087.00000	848.00000	4545.00000
1193.04032	0.62071	0.23949	16782.08209	888.28742	4694.70649	1191.02102	0.24010	16618.00000	883.00000	4661.00000
1199.23468	0.62296	0.23825	17285.78314	889.31352	4795.79789	1197.21139	0.23855	17115.00000	888.00000	4759.00000
1205.42903	0.62347	0.23797	17803.74950	884.81986	4911.10289	1203.40176	0.23796	17641.00000	890.00000	4876.00000
1211.62339	0.62222	0.23866	18288.93541	875.40966	5031.29699	1209.59213	0.23834	18127.00000	874.00000	4986.00000
1217.81774	0.61954	0.24014	18822.64326	884.77349	5192.37889	1215.78250	0.23958	18640.00000	884.00000	5138.00000
1224.01210	0.61593	0.24214	19394.64244	886.64944	5368.18197	1221.97287	0.24145	19207.00000	884.00000	5308.00000
1230.20645	0.61239	0.24412	19914.02804	883.65052	5529.37670	1228.16324	0.24352	19754.00000	889.00000	5483.00000
1236.40081	0.60951	0.24575	20443.22257	901.67246	5703.92812	1234.35361	0.24522	20250.00000	884.00000	5633.00000
1242.59516	0.60685	0.24726	20983.55704	913.92874	5876.25304	1240.54398	0.24677	20830.00000	929.00000	5840.00000
1248.78952	0.60472	0.24847	21408.59755	857.51963	5963.92744	1246.73435	0.24812	21257.00000	864.00000	5924.00000
1254.98387	0.60362	0.24910	21963.19232	903.80541	6149.78173	1252.92472	0.24897	21765.00000	883.00000	6082.00000
1261.17823	0.60370	0.24906	22524.12622	912.01295	6294.70539	1259.11509	0.24915	22354.00000	925.00000	6264.00000
1267.37258	0.60549	0.24804	22986.17424	842.53220	6334.93721	1265.30546	0.24853	22831.00000	862.00000	6322.00000
1273.56694	0.60943	0.24579	23559.26654	863.90001	6442.30875	1271.49583	0.24664	23343.00000	841.00000	6391.00000
1279.76129	0.61533	0.24248	24218.67788	926.08554	6574.01408	1277.68620	0.24374	24011.00000	917.00000	6546.00000
1285.95565	0.62384	0.23777	24785.86259	903.53597	6581.99527	1283.87657	0.23950	24597.00000	914.00000	6586.00000
1292.15000	0.63472	0.23189	25365.44201	883.30871	6560.50237	1290.06694	0.23398	25167.00000	887.00000	6568.00000
1298.34435	0.64836	0.22472	26006.36071	890.98563	6534.75027	1296.25731	0.22732	25780.00000	886.00000	6545.00000
1304.53871	0.66541	0.21607	26630.05012	874.57447	6439.59548	1302.44769	0.21911	26438.00000	889.00000	6487.00000
1310.73306	0.68535	0.20637	27248.70963	870.57155	6314.26145	1308.63806	0.20977	27013.00000	856.00000	6343.00000
1316.92742	0.70836	0.19572	27978.22492	899.13143	6199.15402	1314.82843	0.19942	27743.00000	905.00000	6257.00000
1323.12177	0.73387	0.18456	28652.08032	869.20776	5996.75900	1321.01880	0.18837	28417.00000	870.00000	6059.00000
1329.31613	0.76073	0.17349	29326.86979	878.77526	5814.25587	1327.20917	0.17721	29108.00000	881.00000	5883.00000
1335.51048	0.78748	0.16312	29988.89296	869.55617	5619.58530	1333.39954	0.16654	29750.00000	868.00000	5678.00000
1341.70484	0.81257	0.15397	30733.28624	901.63739	5494.78405	1339.58991	0.15694	30479.00000	888.00000	5532.00000
1347.89919	0.83528	0.14612	31395.47560	904.19541	5359.75173	1345.78028	0.14868	31188.00000	914.00000	5415.00000
1354.09355	0.85628	0.13923	32034.90903	863.56270	5203.30148	1351.97065	0.14152	31795.00000	873.00000	5249.00000
1360.28790	0.87787	0.13247	32743.01691	871.12261	5093.42762	1358.16102	0.13485	32514.00000	864.00000	5132.00000
1366.48226	0.90446	0.12461	33379.68608	871.90470	4922.49681	1364.35139	0.12752	33156.00000	879.00000	4995.00000
1372.67661	0.94118	0.11450	34057.83020	846.79614	4649.53428	1370.54176	0.11828	33823.00000	851.00000	4751.00000
1378.87097	0.99212	0.10183	34635.73096	877.09747	4314.80834	1376.73213	0.10648	34464.00000	860.00000	4438.00000
1385.06532	1.05666	0.08777	34918.15111	884.17886	3871.35110	1382.92250	0.09264	34857.00000	896.00000	4042.00000
1391.25968	1.12706	0.07463	35084.43105	880.25362	3432.95814	1389.11287	0.07896	35009.00000	864.00000	3560.00000
1397.45403	1.19315	0.06410	35256.60430	908.81558	3110.59426	1395.30324	0.06739	35223.00000	917.00000	3229.00000
1403.64839	1.24667	0.05667	35460.41902	874.93094	2834.73873	1401.49361	0.05893	35340.00000	875.00000	2906.00000
1409.84274	1.28570	0.05180	36115.28464	889.95740	2714.49854	1407.68398	0.05324	35843.00000	891.00000	2752.00000
1416.03710	1.31231	0.04872	37072.63964	889.06257	2651.86846	1413.87435	0.04965	36716.00000	883.00000	2662.00000
1422.23145	1.33097	0.04667	38109.58329	899.84710	2636.40207	1420.06472	0.04730	37753.00000	903.00000	2646.00000
1428.42581	1.34451	0.04524	39209.59470	884.48669	2618.15652	1426.25509	0.04568	38798.00000	886.00000	2618.00000
1434.62016	1.35361	0.04430	40343.69229	887.36652	2635.24374	1432.44546	0.04457	39975.00000	888.00000	2630.00000
1440.81452	1.35940	0.04371	41256.54733	884.84875	2649.54947	1438.63583	0.04391	40947.00000	884.00000	2643.00000
1447.00887	1.36346	0.04330	42277.45577	916.93848	2708.06298	1444.82620	0.04341	41879.00000	900.00000	2679.00000
1453.20323	1.36556	0.04310	43305.97151	900.84361	2728.32292	1451.01657	0.04317	42995.00000	926.00000	2742.00000
1459.39758	1.36644	0.04301	44161.32406	866.87487	2728.92225	1457.20694	0.04301	43826.00000	856.00000	2704.00000
1465.59194	1.36460	0.04319	45239.44006	915.28086	2829.69817	1463.39731	0.04310	44853.00000	911.00000	2805.00000
1471.78629	1.36069	0.04358	46233.02845	896.81127	2872.67815	1469.58768	0.04342	45904.00000	900.00000	2854.00000
1477.98065	1.35405	0.04425	47065.83294	872.79680	2917.00666	1475.77805	0.04398	46778.00000	889.00000	2907.00000
1484.17500	1.34552	0.04513	47962.93698	861.43132	2987.22613	1481.96842	0.04482	47619.00000	851.00000	2947.00000
1490.36935	1.33670	0.04606	48831.47241	904.02395	3111.43813	1488.15879	0.04571	48563.00000	896.00000	3075.00000
1496.56371	1.32607	0.04720	49512.71620	894.96830	3189.68074	1494.34916	0.04676	49258.00000	900.00000	3161.00000
1502.75806	1.31393	0.04854	50194.99613	864.88013	3259.17277	1500.53953	0.04805	49970.00000	879.00000	3238.00000
1508.95242	1.30250	0.04983	50885.96137	905.09549	3395.66638	1506.72990	0.04938	50608.00000	869.00000	3325.00000
1515.14677	1.29056	0.05122	51605.20418	913.58727	3510.01713	1512.92027	0.05068	51382.00000	948.00000	3504.00000
1521.34113	1.27726	0.05281	52294.48600	852.65442	3569.47248	1519.11064	0.05224	52003.00000	839.00000	3512.00000
1527.53548	1.26459	0.05438	53048.12749	922.95833	3757.28080	1525.30101	0.05381	52823.00000	917.00000	3710.00000
1533.72984	1.25162	0.05603	53632.54568	893.83922	3848.57946	1531.49138	0.05541	53396.00000	899.00000	3808.00000
1539.92419	1.23829	0.05777	54301.92322	877.49213	3963.86496	1537.68175	0.05714	54078.00000	890.00000	3929.00000
1546.11855	1.22576	0.05946	54914.99226	868.61015	4082.35350	1543.87212	0.05886	54679.00000	860.00000	4028.00000
1552.31290	1.21355	0.06116	55518.70470	896.99967	4237.50996	1550.06249	0.06052	55322.00000	894.00000	4188.00000
1558.50726	1.20090	0.06296	56133.87673	896.69920	4374.77733	1556.25286	0.06231	55876.00000	893.00000	4319.00000
1564.70161	1.18922	0.06468	56712.11985	897.22589	4507.29796	1562.44323	0.06407	56559.00000	903.00000	4469.00000
1570.89597	1.17822	0.06634	57110.05848	872.05494	4603.01744	1568.63360	0.06573	56929.00000	879.00000	4563.00000
1577.09032	1.16739	0.06802	57676.03454	884.04322	4746.76211	1574.82397	0.06741	57481.00000	874.00000	4690.00000
1583.28468	1.15741	0.06960	58148.48322	901.76447	4885.97152	1581.01434	0.06903	57979.00000	901.00000	4841.00000
1589.47903	1.14799	0.07112	58521.77458	900.96157	4999.04766	1587.20471	0.07056	58407.00000	898.00000	4956.00000
1595.67339	1.13913	0.07259	58847.97749	889.36112	5096.54545	1593.39508	0.07206	58710.00000	901.00000	5067.00000
1601.86774	1.13105	0.07395	59278.08519	901.25204	5218.31054	1599.58545	0.07346	59120.00000	881.00000	5159.00000
1608.06210	1.12346	0.07526	59626.81113	919.79947	5337.80480	1605.77582	0.07478	59516.00000	933.00000	5314.00000
1614.25645	1.11624	0.07652	59929.52919	892.32390	5409.73128	1611.96619	0.07605	59807.00000	886.00000	5367.00000
1620.45081	1.10972	0.07767	60153.00374	904.78906	5506.81684	1618.15656	0.07727	60106.00000	914.00000	5488.00000
1626.64516	1.10393	0.07872	60294.89123	889.55822	5565.78061	1624.34693	0.07832	60214.00000	882.00000	5529.00000
1632.83952	1.09840	0.07973	60574.37909	908.30827	5665.30149	1630.53730	0.07937	60478.00000	912.00000	5640.00000
1639.03387	1.09366	0.08060	60657.61823	875.57252	5694.07382	1636.72767	0.08028	60664.00000	885.00000	5684.00000
1645.22823	1.08892	0.08149	60523.85726	878.38363	5738.67627	1642.91804	0.08115	60588.00000	873.00000	5719.00000
1651.42258	1.08435	0.08235	59551.79737	922.21451	5750.14447	1649.10841	0.08204	60118.00000	901.00000	5759.00000
1657.61694	1.08111	0.08296	57456.95118	932.23099	5621.78947	1655.29878	0.08278	58251.00000	943.00000	5687.00000
1663.81129	1.07877	0.08341	56565.87508	907.30956	5549.97971	1661.48915	0.08323	56609.00000	906.00000	5542.00000
1670.00565	1.07618	0.08391	55551.39375	929.29787	5512.59417	1667.67952	0.08374	56348.00000	925.00000	5566.00000
1676.20000	1.07457	0.08422	52498.57123	886.43679	5233.41738	1673.86989	0.08413	53602.00000	912.00000	5345.00000
0.00000	0.00000	0.00000	0.00000	0.00000	0.00000	1680.06026	0.08432	50470.00000	863.00000	5046.00000
0.00000	0.00000	0.00000	0.00000	0.00000	0.00000	1686.25063	0.08443	46618.00000	937.00000	4794.00000
0.00000	0.00000	0.00000	0.00000	0.00000	0.00000	1692.44100	0.08443	46618.00000	937.00000	4794.00000
