'File neuburger liquid milk_3_2016Ò»ÔÂ28_1108.xls
'Part ID neuburger liquid milk_3
'Scan Created 2016/1/28 11:08:25
'Instrument S1-00205
'Version 1.5.7
'Integration Time 10100 µs
'Number of Scans 50
'Units Absorbance
'Thermistor 48.72
Wavelength	Absorbance	Normalized	100%	dark	Raw 1	Native Wvl	Native Norm	Native 100%	Native dark	Native 1
908.10000	0.63180	0.23345	3631.60170	887.38072	1526.75979	906.26400	0.22304	3726.00000	888.00000	1521.00000
914.29435	0.57235	0.26770	3355.15374	866.53591	1533.10559	912.45437	0.25775	3426.00000	877.00000	1534.00000
920.48871	0.52383	0.29934	3277.49982	884.81219	1601.01671	918.64474	0.29023	3268.00000	863.00000	1561.00000
926.68306	0.48137	0.33009	3343.45004	929.35238	1726.15528	924.83511	0.32070	3337.00000	936.00000	1706.00000
932.87742	0.44339	0.36026	3383.28304	868.28464	1774.42883	931.02548	0.35180	3352.00000	879.00000	1749.00000
939.07177	0.41791	0.38202	3611.37944	894.13722	1932.15233	937.21585	0.37675	3529.00000	880.00000	1878.00000
945.26613	0.40596	0.39268	3844.72639	899.10262	2055.83221	943.40622	0.39049	3792.00000	911.00000	2036.00000
951.46048	0.40833	0.39055	3990.33118	866.12413	2086.25767	949.59659	0.39304	3940.00000	864.00000	2073.00000
957.65484	0.42333	0.37729	4200.05980	902.17596	2146.34220	955.78696	0.38129	4134.00000	895.00000	2130.00000
963.84919	0.43227	0.36960	4353.84452	879.91433	2163.96427	961.97733	0.37074	4324.00000	893.00000	2165.00000
970.04355	0.43335	0.36868	4508.91214	907.31519	2235.09120	968.16770	0.36903	4436.00000	878.00000	2191.00000
976.23790	0.43371	0.36837	4705.59533	937.65994	2325.70861	974.35807	0.36804	4678.00000	961.00000	2329.00000
982.43226	0.43049	0.37111	4802.55705	859.82822	2323.00645	980.54844	0.37021	4744.00000	857.00000	2296.00000
988.62661	0.42624	0.37477	5056.66426	916.85736	2468.34414	986.73881	0.37347	4990.00000	912.00000	2435.00000
994.82097	0.42139	0.37898	5256.24217	876.58448	2536.39299	992.92918	0.37785	5187.00000	889.00000	2513.00000
1001.01532	0.41787	0.38206	5512.58508	883.10465	2651.70704	999.11955	0.38111	5435.00000	872.00000	2611.00000
1007.20968	0.41157	0.38764	5788.50166	898.57481	2794.31348	1005.30992	0.38531	5696.00000	905.00000	2751.00000
1013.40403	0.39901	0.39901	6072.99229	882.74563	2953.52249	1011.50029	0.39500	5996.00000	877.00000	2899.00000
1019.59839	0.38428	0.41278	6314.91830	932.50172	3154.40752	1017.69066	0.40865	6234.00000	919.00000	3091.00000
1025.79274	0.37247	0.42416	6573.69285	922.56055	3319.46484	1023.88103	0.42102	6501.00000	936.00000	3279.00000
1031.98710	0.36197	0.43454	6822.60659	893.07597	3469.74373	1030.07140	0.43104	6736.00000	892.00000	3411.00000
1038.18145	0.35072	0.44595	7091.93867	885.35218	3653.12552	1036.26177	0.44265	7019.00000	899.00000	3608.00000
1044.37581	0.34262	0.45434	7363.86368	859.13309	3814.48573	1042.45214	0.45209	7261.00000	853.00000	3750.00000
1050.57016	0.33647	0.46081	7715.60572	899.67643	4040.58322	1048.64251	0.45879	7616.00000	894.00000	3978.00000
1056.76452	0.33124	0.46640	7990.08201	879.28988	4195.73140	1054.83288	0.46495	7906.00000	888.00000	4151.00000
1062.95887	0.32856	0.46929	8290.90811	881.38538	4358.64297	1061.02325	0.46863	8190.00000	873.00000	4302.00000
1069.15323	0.32852	0.46933	8594.49516	891.34108	4506.61479	1067.21362	0.46971	8509.00000	898.00000	4473.00000
1075.34758	0.33044	0.46726	8869.42411	866.08467	4605.78858	1073.40399	0.46788	8775.00000	867.00000	4567.00000
1081.54194	0.33354	0.46394	9180.37064	878.57490	4730.09226	1079.59436	0.46541	9087.00000	877.00000	4698.00000
1087.73629	0.33975	0.45735	9518.08432	912.82879	4848.45801	1085.78473	0.45961	9397.00000	892.00000	4801.00000
1093.93065	0.34730	0.44947	9883.21965	935.27892	4957.14570	1091.97510	0.45208	9784.00000	947.00000	4942.00000
1100.12500	0.35630	0.44025	10189.43579	874.75904	4975.48194	1098.16547	0.44334	10081.00000	885.00000	4962.00000
1106.31935	0.36617	0.43036	10571.21947	880.27745	5050.90477	1104.35584	0.43341	10451.00000	878.00000	5027.00000
1112.51371	0.37579	0.42093	10942.70823	878.68148	5114.97680	1110.54621	0.42397	10824.00000	880.00000	5096.00000
1118.70806	0.38758	0.40965	11327.28901	880.36626	5159.99530	1116.73658	0.41366	11203.00000	878.00000	5149.00000
1124.90242	0.40552	0.39308	11737.96513	895.13068	5157.25563	1122.92695	0.39914	11603.00000	890.00000	5166.00000
1131.09677	0.43408	0.36806	12159.20082	894.20587	5040.20727	1129.11732	0.37712	12028.00000	899.00000	5096.00000
1137.29113	0.47459	0.33528	12517.91825	858.91114	4768.18317	1135.30769	0.34624	12413.00000	872.00000	4868.00000
1143.48548	0.51937	0.30243	12902.53527	854.78999	4498.14292	1141.49806	0.31237	12758.00000	846.00000	4567.00000
1149.67984	0.55552	0.27828	13402.02972	901.50594	4380.36963	1147.68843	0.28472	13245.00000	889.00000	4407.00000
1155.87419	0.57789	0.26431	13861.10201	893.85769	4321.09002	1153.87880	0.26807	13715.00000	905.00000	4339.00000
1162.06855	0.59171	0.25603	14347.55669	869.15501	4320.04442	1160.06917	0.25817	14182.00000	869.00000	4306.00000
1168.26290	0.59922	0.25164	14858.78867	902.05632	4414.19055	1166.25954	0.25279	14700.00000	890.00000	4381.00000
1174.45726	0.60497	0.24833	15318.77020	908.12217	4486.64303	1172.44991	0.24947	15172.00000	914.00000	4471.00000
1180.65161	0.61113	0.24483	15767.36224	863.24000	4512.25434	1178.64028	0.24588	15622.00000	879.00000	4504.00000
1186.84597	0.61602	0.24209	16257.21997	856.02131	4584.53754	1184.83065	0.24293	16087.00000	848.00000	4550.00000
1193.04032	0.61994	0.23992	16782.08209	888.28742	4701.49450	1191.02102	0.24055	16618.00000	883.00000	4668.00000
1199.23468	0.62232	0.23861	17285.78314	889.31352	4801.60225	1197.21139	0.23892	17115.00000	888.00000	4765.00000
1205.42903	0.62279	0.23835	17803.74950	884.81986	4917.43875	1203.40176	0.23831	17641.00000	890.00000	4882.00000
1211.62339	0.62148	0.23907	18288.93541	875.40966	5038.41866	1209.59213	0.23874	18127.00000	874.00000	4993.00000
1217.81774	0.61861	0.24065	18822.64326	884.77349	5201.59767	1215.78250	0.24003	18640.00000	884.00000	5146.00000
1224.01210	0.61493	0.24270	19394.64244	886.64944	5378.52803	1221.97287	0.24205	19207.00000	884.00000	5319.00000
1230.20645	0.61145	0.24465	19914.02804	883.65052	5539.52798	1228.16324	0.24400	19754.00000	889.00000	5492.00000
1236.40081	0.60838	0.24639	20443.22257	901.67246	5716.45071	1234.35361	0.24589	20250.00000	884.00000	5646.00000
1242.59516	0.60600	0.24774	20983.55704	913.92874	5886.06564	1240.54398	0.24727	20830.00000	929.00000	5850.00000
1248.78952	0.60395	0.24891	21408.59755	857.51963	5972.94176	1246.73435	0.24861	21257.00000	864.00000	5934.00000
1254.98387	0.60301	0.24946	21963.19232	903.80541	6157.22599	1252.92472	0.24931	21765.00000	883.00000	6089.00000
1261.17823	0.60301	0.24945	22524.12622	912.01295	6303.20840	1259.11509	0.24957	22354.00000	925.00000	6273.00000
1267.37258	0.60508	0.24827	22986.17424	842.53220	6340.07121	1265.30546	0.24881	22831.00000	862.00000	6328.00000
1273.56694	0.60899	0.24604	23559.26654	863.90001	6447.97228	1271.49583	0.24687	23343.00000	841.00000	6396.00000
1279.76129	0.61479	0.24278	24218.67788	926.08554	6581.01303	1277.68620	0.24405	24011.00000	917.00000	6553.00000
1285.95565	0.62343	0.23800	24785.86259	903.53597	6587.40292	1283.87657	0.23975	24597.00000	914.00000	6592.00000
1292.15000	0.63449	0.23201	25365.44201	883.30871	6563.54827	1290.06694	0.23414	25167.00000	887.00000	6572.00000
1298.34435	0.64817	0.22482	26006.36071	890.98563	6537.27610	1296.25731	0.22740	25780.00000	886.00000	6547.00000
1304.53871	0.66510	0.21622	26630.05012	874.57447	6443.50460	1302.44769	0.21926	26438.00000	889.00000	6491.00000
1310.73306	0.68530	0.20639	27248.70963	870.57155	6314.80262	1308.63806	0.20985	27013.00000	856.00000	6345.00000
1316.92742	0.70858	0.19562	27978.22492	899.13143	6196.45613	1314.82843	0.19934	27743.00000	905.00000	6255.00000
1323.12177	0.73432	0.18437	28652.08032	869.20776	5991.43996	1321.01880	0.18822	28417.00000	870.00000	6055.00000
1329.31613	0.76149	0.17319	29326.86979	878.77526	5805.61890	1327.20917	0.17692	29108.00000	881.00000	5875.00000
1335.51048	0.78834	0.16280	29988.89296	869.55617	5610.23359	1333.39954	0.16623	29750.00000	868.00000	5669.00000
1341.70484	0.81374	0.15355	30733.28624	901.63739	5482.36815	1339.58991	0.15657	30479.00000	888.00000	5521.00000
1347.89919	0.83681	0.14561	31395.47560	904.19541	5344.11661	1345.78028	0.14818	31188.00000	914.00000	5400.00000
1354.09355	0.85791	0.13871	32034.90903	863.56270	5187.10021	1351.97065	0.14100	31795.00000	873.00000	5233.00000
1360.28790	0.87944	0.13200	32743.01691	871.12261	5078.23465	1358.16102	0.13434	32514.00000	864.00000	5116.00000
1366.48226	0.90602	0.12416	33379.68608	871.90470	4907.95443	1364.35139	0.12709	33156.00000	879.00000	4981.00000
1372.67661	0.94326	0.11396	34057.83020	846.79614	4631.32785	1370.54176	0.11777	33823.00000	851.00000	4734.00000
1378.87097	0.99444	0.10129	34635.73096	877.09747	4296.48678	1376.73213	0.10591	34464.00000	860.00000	4419.00000
1385.06532	1.05920	0.08726	34918.15111	884.17886	3853.94683	1382.92250	0.09214	34857.00000	896.00000	4025.00000
1391.25968	1.13034	0.07407	35084.43105	880.25362	3413.74778	1389.11287	0.07840	35009.00000	864.00000	3541.00000
1397.45403	1.19646	0.06361	35256.60430	908.81558	3093.88608	1395.30324	0.06687	35223.00000	917.00000	3211.00000
1403.64839	1.24953	0.05630	35460.41902	874.93094	2821.87171	1401.49361	0.05852	35340.00000	875.00000	2892.00000
1409.84274	1.28865	0.05145	36115.28464	889.95740	2702.12521	1407.68398	0.05290	35843.00000	891.00000	2740.00000
1416.03710	1.31599	0.04831	37072.63964	889.06257	2636.97843	1413.87435	0.04926	36716.00000	883.00000	2648.00000
1422.23145	1.33441	0.04630	38109.58329	899.84710	2622.73211	1420.06472	0.04689	37753.00000	903.00000	2631.00000
1428.42581	1.34724	0.04495	39209.59470	884.48669	2607.28615	1426.25509	0.04539	38798.00000	886.00000	2607.00000
1434.62016	1.35668	0.04399	40343.69229	887.36652	2622.96220	1432.44546	0.04426	39975.00000	888.00000	2618.00000
1440.81452	1.36230	0.04342	41256.54733	884.84875	2637.81996	1438.63583	0.04361	40947.00000	884.00000	2631.00000
1447.00887	1.36661	0.04299	42277.45577	916.93848	2695.12985	1444.82620	0.04312	41879.00000	900.00000	2667.00000
1453.20323	1.36928	0.04273	43305.97151	900.84361	2712.75488	1451.01657	0.04281	42995.00000	926.00000	2727.00000
1459.39758	1.36969	0.04269	44161.32406	866.87487	2715.07582	1457.20694	0.04266	43826.00000	856.00000	2689.00000
1465.59194	1.36735	0.04292	45239.44006	915.28086	2817.60896	1463.39731	0.04283	44853.00000	911.00000	2793.00000
1471.78629	1.36409	0.04324	46233.02845	896.81127	2857.23310	1469.58768	0.04311	45904.00000	900.00000	2840.00000
1477.98065	1.35759	0.04389	47065.83294	872.79680	2900.44134	1475.77805	0.04361	46778.00000	889.00000	2890.00000
1484.17500	1.34854	0.04482	47962.93698	861.43132	2972.45118	1481.96842	0.04450	47619.00000	851.00000	2932.00000
1490.36935	1.33963	0.04575	48831.47241	904.02395	3096.56908	1488.15879	0.04540	48563.00000	896.00000	3060.00000
1496.56371	1.32908	0.04687	49512.71620	894.96830	3173.83906	1494.34916	0.04645	49258.00000	900.00000	3146.00000
1502.75806	1.31692	0.04820	50194.99613	864.88013	3242.77026	1500.53953	0.04771	49970.00000	879.00000	3221.00000
1508.95242	1.30519	0.04952	50885.96137	905.09549	3380.29154	1506.72990	0.04908	50608.00000	869.00000	3310.00000
1515.14677	1.29348	0.05088	51605.20418	913.58727	3492.60146	1512.92027	0.05034	51382.00000	948.00000	3487.00000
1521.34113	1.28029	0.05245	52294.48600	852.65442	3550.56755	1519.11064	0.05189	52003.00000	839.00000	3494.00000
1527.53548	1.26757	0.05400	53048.12749	922.95833	3737.91989	1525.30101	0.05342	52823.00000	917.00000	3690.00000
1533.72984	1.25434	0.05568	53632.54568	893.83922	3830.11556	1531.49138	0.05507	53396.00000	899.00000	3790.00000
1539.92419	1.24112	0.05740	54301.92322	877.49213	3943.79467	1537.68175	0.05676	54078.00000	890.00000	3909.00000
1546.11855	1.22858	0.05908	54914.99226	868.61015	4061.52198	1543.87212	0.05849	54679.00000	860.00000	4008.00000
1552.31290	1.21632	0.06077	55518.70470	896.99967	4216.22715	1550.06249	0.06012	55322.00000	894.00000	4166.00000
1558.50726	1.20352	0.06259	56133.87673	896.69920	4353.84475	1556.25286	0.06195	55876.00000	893.00000	4299.00000
1564.70161	1.19226	0.06423	56712.11985	897.22589	4482.17032	1562.44323	0.06364	56559.00000	903.00000	4445.00000
1570.89597	1.18100	0.06592	57110.05848	872.05494	4579.19100	1568.63360	0.06528	56929.00000	879.00000	4538.00000
1577.09032	1.17018	0.06758	57676.03454	884.04322	4722.00303	1574.82397	0.06701	57481.00000	874.00000	4667.00000
1583.28468	1.16043	0.06911	58148.48322	901.76447	4858.41129	1581.01434	0.06854	57979.00000	901.00000	4813.00000
1589.47903	1.15088	0.07065	58521.77458	900.96157	4971.93125	1587.20471	0.07011	58407.00000	898.00000	4930.00000
1595.67339	1.14224	0.07207	58847.97749	889.36112	5066.48175	1593.39508	0.07155	58710.00000	901.00000	5037.00000
1601.86774	1.13400	0.07345	59278.08519	901.25204	5189.05438	1599.58545	0.07296	59120.00000	881.00000	5130.00000
1608.06210	1.12638	0.07475	59626.81113	919.79947	5308.27836	1605.77582	0.07427	59516.00000	933.00000	5284.00000
1614.25645	1.11915	0.07601	59929.52919	892.32390	5379.55711	1611.96619	0.07556	59807.00000	886.00000	5338.00000
1620.45081	1.11292	0.07710	60153.00374	904.78906	5473.06031	1618.15656	0.07672	60106.00000	914.00000	5455.00000
1626.64516	1.10713	0.07814	60294.89123	889.55822	5531.50734	1624.34693	0.07775	60214.00000	882.00000	5495.00000
1632.83952	1.10164	0.07913	60574.37909	908.30827	5629.92356	1630.53730	0.07879	60478.00000	912.00000	5605.00000
1639.03387	1.09696	0.07999	60657.61823	875.57252	5657.57553	1636.72767	0.07968	60664.00000	885.00000	5648.00000
1645.22823	1.09246	0.08082	60523.85726	878.38363	5699.27621	1642.91804	0.08052	60588.00000	873.00000	5681.00000
1651.42258	1.08802	0.08166	59551.79737	922.21451	5709.54164	1649.10841	0.08134	60118.00000	901.00000	5718.00000
1657.61694	1.08470	0.08228	57456.95118	932.23099	5583.16008	1655.29878	0.08210	58251.00000	943.00000	5648.00000
1663.81129	1.08273	0.08266	56565.87508	907.30956	5507.90359	1661.48915	0.08251	56609.00000	906.00000	5502.00000
1670.00565	1.08046	0.08309	55551.39375	929.29787	5467.66920	1667.67952	0.08293	56348.00000	925.00000	5521.00000
1676.20000	1.07879	0.08341	52498.57123	886.43679	5191.35722	1673.86989	0.08332	53602.00000	912.00000	5302.00000
0.00000	0.00000	0.00000	0.00000	0.00000	0.00000	1680.06026	0.08348	50470.00000	863.00000	5004.00000
0.00000	0.00000	0.00000	0.00000	0.00000	0.00000	1686.25063	0.08345	46618.00000	937.00000	4749.00000
0.00000	0.00000	0.00000	0.00000	0.00000	0.00000	1692.44100	0.08345	46618.00000	937.00000	4749.00000
