'File ÄÌ·Û_1_2016Ò»ÔÂ28_1046.xls
'Part ID ÄÌ·Û_1
'Scan Created 2016/1/28 10:46:29
'Instrument S1-00205
'Version 1.5.7
'Integration Time 10100 µs
'Number of Scans 50
'Units Absorbance
'Thermistor 44.52
Wavelength	Absorbance	Normalized	100%	dark	Raw 1	Native Wvl	Native Norm	Native 100%	Native dark	Native 1
908.10000	0.23095	0.58755	3514.15951	877.71219	2425.75400	906.26400	0.57784	3596.00000	879.00000	2449.00000
914.29435	0.20835	0.61894	3281.25113	863.65831	2360.27636	912.45437	0.60996	3339.00000	870.00000	2376.00000
920.48871	0.18872	0.64756	3227.40662	877.32414	2399.16716	918.64474	0.63918	3216.00000	863.00000	2367.00000
926.68306	0.16948	0.67689	3307.28228	905.48228	2531.15114	924.83511	0.66779	3291.00000	910.00000	2500.00000
932.87742	0.14953	0.70871	3382.42130	864.28145	2648.99267	931.02548	0.69915	3345.00000	872.00000	2601.00000
939.07177	0.13211	0.73773	3608.15965	881.02078	2892.88269	937.21585	0.72977	3528.00000	871.00000	2810.00000
945.26613	0.11898	0.76036	3846.64039	885.69520	3137.11701	943.40622	0.75406	3789.00000	894.00000	3077.00000
951.46048	0.11048	0.77538	4004.44998	860.87297	3298.25738	949.59659	0.77214	3954.00000	860.00000	3249.00000
957.65484	0.10679	0.78200	4209.47249	887.01493	3485.25119	955.78696	0.78020	4143.00000	881.00000	3426.00000
963.84919	0.10405	0.78696	4374.85740	871.56767	3628.47602	961.97733	0.78578	4341.00000	882.00000	3600.00000
970.04355	0.10404	0.78697	4520.56130	886.05989	3746.32776	968.16770	0.78774	4456.00000	866.00000	3694.00000
976.23790	0.10775	0.78028	4717.71427	911.39747	3881.32446	974.35807	0.78284	4679.00000	926.00000	3864.00000
982.43226	0.11158	0.77343	4843.76664	857.92770	3940.74857	980.54844	0.77481	4787.00000	857.00000	3902.00000
988.62661	0.11223	0.77227	5076.97721	894.34516	4124.46298	986.73881	0.77233	5011.00000	891.00000	4073.00000
994.82097	0.11216	0.77239	5297.39601	869.00992	4289.45097	992.92918	0.77238	5222.00000	877.00000	4233.00000
1001.01532	0.11289	0.77110	5554.06756	873.41459	4482.65089	999.11955	0.77178	5480.00000	866.00000	4427.00000
1007.20968	0.11410	0.76895	5827.05497	883.56657	4684.82603	1005.30992	0.76936	5731.00000	888.00000	4614.00000
1013.40403	0.11218	0.77236	6120.28754	870.80251	4925.32224	1011.50029	0.77033	6045.00000	868.00000	4856.00000
1019.59839	0.10827	0.77934	6348.68404	901.94795	5146.74979	1017.69066	0.77776	6270.00000	893.00000	5075.00000
1025.79274	0.10666	0.78224	6618.61076	896.05363	5372.46211	1023.88103	0.78137	6540.00000	905.00000	5308.00000
1031.98710	0.10461	0.78593	6878.79036	877.64868	5594.13967	1030.07140	0.78465	6792.00000	876.00000	5518.00000
1038.18145	0.10211	0.79048	7153.19229	875.20158	5837.79836	1036.26177	0.78905	7075.00000	884.00000	5769.00000
1044.37581	0.09987	0.79457	7435.03734	854.54502	6083.19936	1042.45214	0.79343	7334.00000	852.00000	5995.00000
1050.57016	0.09827	0.79750	7778.63216	881.04291	6381.81998	1048.64251	0.79668	7678.00000	876.00000	6295.00000
1056.76452	0.09656	0.80065	8066.37003	871.22278	6632.08222	1054.83288	0.79949	7979.00000	877.00000	6555.00000
1062.95887	0.09474	0.80401	8367.94643	870.25694	6898.42777	1061.02325	0.80319	8268.00000	865.00000	6811.00000
1069.15323	0.09373	0.80588	8674.59951	877.92605	7161.12820	1067.21362	0.80530	8586.00000	882.00000	7086.00000
1075.34758	0.09232	0.80849	8958.19691	861.24829	7407.59549	1073.40399	0.80752	8863.00000	862.00000	7323.00000
1081.54194	0.09075	0.81142	9269.61857	868.88623	7685.40697	1079.59436	0.81064	9175.00000	868.00000	7602.00000
1087.73629	0.08977	0.81326	9599.77547	889.96693	7973.35116	1085.78473	0.81273	9485.00000	877.00000	7873.00000
1093.93065	0.08902	0.81467	9958.85840	903.23915	8280.57691	1091.97510	0.81429	9855.00000	911.00000	8194.00000
1100.12500	0.08864	0.81538	10287.04131	864.70017	8547.48073	1098.16547	0.81524	10175.00000	871.00000	8456.00000
1106.31935	0.08852	0.81560	10673.09117	870.26271	8865.41951	1104.35584	0.81553	10550.00000	868.00000	8764.00000
1112.51371	0.08850	0.81565	11054.17109	867.39097	9176.23770	1110.54621	0.81568	10934.00000	870.00000	9079.00000
1118.70806	0.08896	0.81478	11440.58269	866.80701	9482.08162	1116.73658	0.81523	11315.00000	864.00000	9384.00000
1124.90242	0.09089	0.81116	11853.47185	879.92340	9781.23074	1122.92695	0.81277	11719.00000	877.00000	9689.00000
1131.09677	0.09497	0.80358	12279.20991	877.48685	10039.64564	1129.11732	0.80637	12144.00000	880.00000	9963.00000
1137.29113	0.10079	0.79288	12658.45812	855.49825	10213.95405	1135.30769	0.79661	12547.00000	865.00000	10171.00000
1143.48548	0.10782	0.78015	13049.18681	852.30684	10367.57454	1141.49806	0.78435	12906.00000	845.00000	10305.00000
1149.67984	0.11536	0.76672	13533.98158	886.77209	10583.83783	1147.68843	0.77109	13382.00000	879.00000	10520.00000
1155.87419	0.12428	0.75114	13997.40073	876.37382	10731.94292	1153.87880	0.75664	13845.00000	885.00000	10691.00000
1162.06855	0.13441	0.73383	14503.46887	861.13988	10872.30906	1160.06917	0.73915	14335.00000	860.00000	10820.00000
1168.26290	0.14290	0.71961	15009.58309	885.01032	11049.33067	1166.25954	0.72388	14853.00000	877.00000	10994.00000
1174.45726	0.15112	0.70612	15471.50866	888.01740	11185.54091	1172.44991	0.71074	15322.00000	892.00000	11148.00000
1180.65161	0.16010	0.69167	15938.18293	858.48109	11288.71661	1178.64028	0.69619	15786.00000	869.00000	11254.00000
1186.84597	0.16758	0.67986	16436.20435	853.30650	11447.49345	1184.83065	0.68331	16267.00000	848.00000	11384.00000
1193.04032	0.17271	0.67188	16954.92806	876.34677	11679.31936	1191.02102	0.67404	16791.00000	872.00000	11602.00000
1199.23468	0.17552	0.66755	17462.35109	876.98642	11948.53224	1197.21139	0.66864	17291.00000	877.00000	11852.00000
1205.42903	0.17649	0.66606	17986.83670	869.01927	12270.52516	1203.40176	0.66623	17820.00000	874.00000	12164.00000
1211.62339	0.17469	0.66882	18479.84056	863.23699	12645.63887	1209.59213	0.66724	18318.00000	861.00000	12509.00000
1217.81774	0.16926	0.67724	19014.17361	874.89956	13159.61461	1215.78250	0.67398	18829.00000	873.00000	12975.00000
1224.01210	0.16197	0.68869	19594.72563	876.04482	13767.51652	1221.97287	0.68480	19406.00000	875.00000	13565.00000
1230.20645	0.15532	0.69932	20120.20026	872.48020	14332.77642	1228.16324	0.69617	19956.00000	876.00000	14159.00000
1236.40081	0.15065	0.70689	20649.23727	886.34799	14856.65330	1234.35361	0.70465	20461.00000	874.00000	14676.00000
1242.59516	0.14706	0.71276	21186.14180	892.43754	15356.92397	1240.54398	0.71093	21027.00000	904.00000	15210.00000
1248.78952	0.14421	0.71745	21639.43707	853.74756	15766.48342	1246.73435	0.71606	21481.00000	857.00000	15625.00000
1254.98387	0.14206	0.72102	22186.10389	887.90098	16244.26807	1252.92472	0.71990	21995.00000	874.00000	16079.00000
1261.17823	0.14057	0.72348	22744.98332	890.64324	16701.81340	1259.11509	0.72286	22568.00000	900.00000	16563.00000
1267.37258	0.13984	0.72470	23243.71070	844.15789	17077.05368	1265.30546	0.72431	23078.00000	857.00000	16952.00000
1273.56694	0.13854	0.72688	23813.43146	859.99157	17544.40741	1271.49583	0.72589	23605.00000	844.00000	17366.00000
1279.76129	0.13628	0.73067	24453.54449	898.95555	18109.64448	1277.68620	0.72936	24247.00000	895.00000	17927.00000
1285.95565	0.13387	0.73473	25039.29282	882.87107	18631.36345	1283.87657	0.73333	24843.00000	888.00000	18455.00000
1292.15000	0.13147	0.73880	25633.20976	874.48479	19166.27534	1290.06694	0.73749	25432.00000	877.00000	18986.00000
1298.34435	0.12966	0.74189	26275.57944	875.36170	19719.45360	1296.25731	0.74102	26049.00000	873.00000	19529.00000
1304.53871	0.12872	0.74349	26910.28272	864.72671	20229.36296	1302.44769	0.74309	26712.00000	874.00000	20074.00000
1310.73306	0.12865	0.74363	27539.76334	865.28161	20701.12173	1308.63806	0.74378	27304.00000	854.00000	20527.00000
1316.92742	0.12962	0.74196	28270.79252	884.98210	21204.28872	1314.82843	0.74272	28032.00000	890.00000	21049.00000
1323.12177	0.13166	0.73849	28955.06915	860.68820	21607.99496	1321.01880	0.73989	28719.00000	862.00000	21473.00000
1329.31613	0.13506	0.73272	29633.32179	868.03484	21944.85146	1327.20917	0.73499	29411.00000	869.00000	21847.00000
1335.51048	0.14026	0.72400	30302.79696	861.31771	22176.86222	1333.39954	0.72732	30064.00000	861.00000	22101.00000
1341.70484	0.14749	0.71205	31040.63710	883.35260	22356.63451	1339.58991	0.71650	30788.00000	873.00000	22307.00000
1347.89919	0.15666	0.69718	31710.62252	886.82909	22376.57311	1345.78028	0.70252	31498.00000	894.00000	22394.00000
1354.09355	0.16683	0.68104	32368.46417	858.22619	22317.71059	1351.97065	0.68655	32123.00000	864.00000	22325.00000
1360.28790	0.17644	0.66614	33079.41609	863.88248	22324.09661	1358.16102	0.67098	32852.00000	860.00000	22326.00000
1366.48226	0.18505	0.65305	33719.60962	862.84716	22319.89466	1364.35139	0.65746	33491.00000	867.00000	22316.00000
1372.67661	0.19305	0.64113	34419.13569	848.00380	22371.41531	1370.54176	0.64503	34178.00000	851.00000	22348.00000
1378.87097	0.19989	0.63112	34997.78982	865.89108	22407.28888	1376.73213	0.63437	34829.00000	855.00000	22407.00000
1385.06532	0.20608	0.62219	35282.55609	871.96034	22281.97606	1382.92250	0.62527	35216.00000	879.00000	22349.00000
1391.25968	0.21226	0.61340	35454.56849	868.59113	22083.43384	1389.11287	0.61641	35383.00000	859.00000	22140.00000
1397.45403	0.21955	0.60318	35619.60134	886.37628	21837.03771	1395.30324	0.60717	35583.00000	891.00000	21955.00000
1403.64839	0.23103	0.58745	35834.55471	865.31191	21408.01931	1401.49361	0.59375	35714.00000	866.00000	21557.00000
1409.84274	0.24867	0.56406	36489.35769	873.82043	20962.98366	1407.68398	0.57309	36214.00000	874.00000	21127.00000
1416.03710	0.27189	0.53470	37454.71523	877.22955	20435.14878	1413.87435	0.54535	37098.00000	872.00000	20628.00000
1422.23145	0.29836	0.50308	38501.95566	886.60375	19810.51571	1420.06472	0.51424	38137.00000	888.00000	20043.00000
1428.42581	0.32648	0.47154	39622.23895	874.12429	19144.66498	1426.25509	0.48243	39208.00000	877.00000	19369.00000
1434.62016	0.35149	0.44515	40761.26708	872.53526	18629.55448	1432.44546	0.45327	40388.00000	873.00000	18784.00000
1440.81452	0.36627	0.43026	41685.67119	872.92918	18433.10904	1438.63583	0.43409	41375.00000	872.00000	18454.00000
1447.00887	0.37204	0.42458	42697.97010	892.09592	18642.07534	1444.82620	0.42604	42303.00000	882.00000	18529.00000
1453.20323	0.37573	0.42099	43743.69350	881.19502	18925.91920	1451.01657	0.42234	43420.00000	897.00000	18856.00000
1459.39758	0.37978	0.41708	44616.30730	861.83262	19110.92481	1457.20694	0.41840	44284.00000	854.00000	19025.00000
1465.59194	0.38320	0.41381	45681.51347	893.65188	19427.27556	1463.39731	0.41490	45294.00000	891.00000	19314.00000
1471.78629	0.38590	0.41125	46691.44736	880.41136	19720.05704	1469.58768	0.41205	46358.00000	883.00000	19621.00000
1477.98065	0.38778	0.40947	47539.84378	864.96700	19977.02425	1475.77805	0.41004	47244.00000	875.00000	19888.00000
1484.17500	0.38904	0.40828	48453.02745	858.97393	20290.74727	1481.96842	0.40863	48107.00000	852.00000	20162.00000
1490.36935	0.38971	0.40766	49314.35954	885.82004	20627.94916	1488.15879	0.40782	49049.00000	881.00000	20525.00000
1496.56371	0.38962	0.40773	50001.49019	880.23876	20908.62343	1494.34916	0.40759	49741.00000	883.00000	20797.00000
1502.75806	0.38845	0.40884	50705.77350	864.52184	21241.56369	1500.53953	0.40833	50474.00000	872.00000	21126.00000
1508.95242	0.38648	0.41070	51385.78695	891.73536	21629.48022	1506.72990	0.40998	51118.00000	869.00000	21470.00000
1515.14677	0.38418	0.41288	52107.85403	893.71978	22038.95272	1512.92027	0.41207	51872.00000	917.00000	21914.00000
1521.34113	0.38157	0.41537	52815.89525	851.69957	22435.98037	1519.11064	0.41443	52530.00000	844.00000	22264.00000
1527.53548	0.37901	0.41782	53548.61369	896.26537	22895.55579	1525.30101	0.41701	53323.00000	892.00000	22756.00000
1533.72984	0.37674	0.42001	54149.95370	878.59624	23253.22365	1531.49138	0.41919	53910.00000	882.00000	23111.00000
1539.92419	0.37454	0.42214	54832.12801	868.84378	23648.84696	1537.68175	0.42143	54600.00000	876.00000	23517.00000
1546.11855	0.37300	0.42364	55451.13851	864.00141	23989.42934	1543.87212	0.42317	55220.00000	859.00000	23863.00000
1552.31290	0.37203	0.42459	56042.33834	881.37311	24302.10337	1550.06249	0.42430	55845.00000	879.00000	24201.00000
1558.50726	0.37168	0.42493	56662.34212	881.97129	24584.98115	1556.25286	0.42490	56406.00000	880.00000	24473.00000
1564.70161	0.37202	0.42460	57241.63462	881.81730	24812.03559	1562.44323	0.42478	57084.00000	885.00000	24757.00000
1570.89597	0.37243	0.42420	57652.97230	868.16681	24956.13193	1568.63360	0.42429	57470.00000	872.00000	24886.00000
1577.09032	0.37237	0.42426	58206.47218	874.43948	25198.00272	1574.82397	0.42419	58018.00000	869.00000	25111.00000
1583.28468	0.37168	0.42493	58673.40818	887.42953	25442.62774	1581.01434	0.42458	58502.00000	885.00000	25348.00000
1589.47903	0.37002	0.42656	59041.87130	888.83630	25694.71451	1587.20471	0.42585	58934.00000	888.00000	25607.00000
1595.67339	0.36724	0.42930	59358.10218	876.53006	25982.66790	1593.39508	0.42815	59218.00000	885.00000	25860.00000
1601.86774	0.36345	0.43307	59778.17203	883.72242	26388.83081	1599.58545	0.43160	59632.00000	871.00000	26232.00000
1608.06210	0.35894	0.43758	60103.05486	896.34115	26804.24785	1605.77582	0.43582	59993.00000	904.00000	26656.00000
1614.25645	0.35387	0.44272	60403.71328	879.81794	27232.06358	1611.96619	0.44079	60288.00000	876.00000	27064.00000
1620.45081	0.34877	0.44795	60606.54759	887.56155	27638.63097	1618.15656	0.44602	60563.00000	893.00000	27507.00000
1626.64516	0.34375	0.45316	60733.55595	878.59339	28002.35852	1624.34693	0.45122	60663.00000	874.00000	27852.00000
1632.83952	0.33880	0.45836	60986.21919	889.52033	28435.23655	1630.53730	0.45644	60896.00000	892.00000	28280.00000
1639.03387	0.33412	0.46332	61048.69415	866.62659	28750.07192	1636.72767	0.46152	61067.00000	874.00000	28654.00000
1645.22823	0.32980	0.46795	60863.78586	869.32764	28944.04039	1642.91804	0.46626	60949.00000	864.00000	28879.00000
1651.42258	0.32589	0.47218	59805.79968	899.77194	28713.64731	1649.10841	0.47067	60411.00000	887.00000	28903.00000
1657.61694	0.32273	0.47563	57584.63778	905.33477	27863.48030	1655.29878	0.47445	58428.00000	911.00000	28200.00000
1663.81129	0.32022	0.47838	56481.05190	890.63733	27484.61387	1661.48915	0.47739	56625.00000	891.00000	27498.00000
1670.00565	0.31865	0.48012	55048.67016	902.23167	26898.92923	1667.67952	0.47969	56028.00000	899.00000	27344.00000
1676.20000	0.31864	0.48013	51378.45954	875.98122	25122.87502	1673.86989	0.48029	52735.00000	893.00000	25792.00000
0.00000	0.00000	0.00000	0.00000	0.00000	0.00000	1680.06026	0.47918	48849.00000	859.00000	23855.00000
0.00000	0.00000	0.00000	0.00000	0.00000	0.00000	1686.25063	0.47637	44181.00000	908.00000	21522.00000
0.00000	0.00000	0.00000	0.00000	0.00000	0.00000	1692.44100	0.47637	44181.00000	908.00000	21522.00000
