'File ¾Æ_3_2016Ò»ÔÂ28_1113.xls
'Part ID ¾Æ_3
'Scan Created 2016/1/28 11:13:17
'Instrument S1-00205
'Version 1.5.7
'Integration Time 10100 µs
'Number of Scans 50
'Units Absorbance
'Thermistor 47.43
Wavelength	Absorbance	Normalized	100%	dark	Raw 1	Native Wvl	Native Norm	Native 100%	Native dark	Native 1
908.10000	1.42199	0.03785	3595.82598	881.87120	984.71410	906.26400	0.03852	3684.00000	880.00000	988.00000
914.29435	1.42461	0.03762	3338.07467	866.26472	959.17624	912.45437	0.03718	3404.00000	876.00000	970.00000
920.48871	1.40302	0.03954	3265.72768	878.51909	972.92690	918.64474	0.03922	3257.00000	860.00000	954.00000
926.68306	1.40214	0.03961	3334.01990	918.74175	1014.41432	924.83511	0.03958	3324.00000	924.00000	1019.00000
932.87742	1.39682	0.04010	3389.36197	864.93184	966.17155	931.02548	0.03992	3355.00000	875.00000	974.00000
939.07177	1.39055	0.04069	3619.59224	884.95115	996.22769	937.21585	0.04054	3537.00000	873.00000	981.00000
945.26613	1.39349	0.04041	3856.44440	889.93616	1009.78536	943.40622	0.04066	3802.00000	900.00000	1018.00000
951.46048	1.40233	0.03960	4005.12223	859.91735	984.51518	949.59659	0.03973	3955.00000	859.00000	982.00000
957.65484	1.41896	0.03811	4215.51392	893.73656	1020.23938	955.78696	0.03892	4148.00000	885.00000	1012.00000
963.84919	1.43607	0.03664	4374.23623	878.43417	1006.58963	961.97733	0.03649	4344.00000	891.00000	1017.00000
970.04355	1.42446	0.03763	4523.41127	896.06510	1032.50193	968.16770	0.03769	4453.00000	871.00000	1006.00000
976.23790	1.43511	0.03672	4726.50938	925.04592	1064.67573	974.35807	0.03682	4693.00000	945.00000	1083.00000
982.43226	1.43195	0.03699	4835.26800	856.06452	1003.21559	980.54844	0.03695	4778.00000	854.00000	999.00000
988.62661	1.43140	0.03703	5079.18703	905.14928	1059.75431	986.73881	0.03696	5013.00000	901.00000	1053.00000
994.82097	1.43151	0.03702	5288.13901	870.37131	1033.91183	992.92918	0.03714	5216.00000	881.00000	1042.00000
1001.01532	1.43470	0.03675	5547.24444	876.96250	1048.61527	999.11955	0.03672	5470.00000	867.00000	1036.00000
1007.20968	1.42541	0.03755	5821.73207	889.84005	1075.05231	1005.30992	0.03724	5729.00000	896.00000	1076.00000
1013.40403	1.42137	0.03790	6108.36987	875.33513	1073.63891	1011.50029	0.03798	6031.00000	870.00000	1066.00000
1019.59839	1.42664	0.03744	6349.51155	919.49996	1122.81513	1017.69066	0.03749	6269.00000	908.00000	1109.00000
1025.79274	1.41971	0.03804	6610.09178	908.88037	1125.79592	1023.88103	0.03776	6536.00000	921.00000	1133.00000
1031.98710	1.41053	0.03886	6863.27600	885.10537	1117.36932	1030.07140	0.03869	6776.00000	883.00000	1111.00000
1038.18145	1.40300	0.03954	7137.95533	879.30949	1126.79451	1036.26177	0.03922	7062.00000	892.00000	1134.00000
1044.37581	1.39467	0.04030	7415.45215	852.78191	1117.23370	1042.45214	0.04022	7313.00000	848.00000	1108.00000
1050.57016	1.39419	0.04035	7763.75520	889.74850	1167.11525	1048.64251	0.04027	7664.00000	884.00000	1157.00000
1056.76452	1.38908	0.04082	8043.98752	873.54577	1166.27643	1054.83288	0.04070	7958.00000	881.00000	1169.00000
1062.95887	1.38823	0.04090	8346.47029	875.55305	1181.11667	1061.02325	0.04093	8246.00000	868.00000	1170.00000
1069.15323	1.38346	0.04136	8651.05608	883.28349	1204.58122	1067.21362	0.04105	8564.00000	890.00000	1205.00000
1075.34758	1.37699	0.04198	8931.01237	859.29405	1198.06556	1073.40399	0.04200	8836.00000	860.00000	1195.00000
1081.54194	1.38247	0.04145	9243.78719	871.40916	1218.48321	1079.59436	0.04155	9149.00000	870.00000	1214.00000
1087.73629	1.38419	0.04129	9580.78777	901.76500	1260.07491	1085.78473	0.04138	9462.00000	883.00000	1238.00000
1093.93065	1.38886	0.04084	9940.76391	922.65990	1291.00336	1091.97510	0.04097	9841.00000	933.00000	1298.00000
1100.12500	1.39062	0.04068	10254.38783	869.25749	1251.05707	1098.16547	0.04069	10144.00000	878.00000	1255.00000
1106.31935	1.39224	0.04053	10641.04469	875.00467	1270.78272	1104.35584	0.04064	10519.00000	873.00000	1265.00000
1112.51371	1.39689	0.04010	11015.80766	872.41348	1279.16043	1110.54621	0.04021	10897.00000	874.00000	1277.00000
1118.70806	1.40324	0.03951	11401.60672	872.77123	1288.78583	1116.73658	0.03979	11276.00000	871.00000	1285.00000
1124.90242	1.41452	0.03850	11814.30888	885.70510	1306.51840	1122.92695	0.03880	11680.00000	881.00000	1300.00000
1131.09677	1.42990	0.03716	12236.17715	886.26842	1308.01175	1129.11732	0.03772	12103.00000	890.00000	1313.00000
1137.29113	1.45130	0.03538	12606.57558	854.95675	1270.70212	1135.30769	0.03585	12498.00000	867.00000	1284.00000
1143.48548	1.46162	0.03454	12995.31207	851.62722	1271.12443	1141.49806	0.03473	12851.00000	843.00000	1260.00000
1149.67984	1.46603	0.03420	13491.13514	894.93569	1325.66930	1147.68843	0.03429	13335.00000	884.00000	1311.00000
1155.87419	1.46935	0.03394	13953.07917	885.15852	1328.61617	1153.87880	0.03401	13805.00000	896.00000	1335.00000
1162.06855	1.47083	0.03382	14446.12872	862.12568	1321.54233	1160.06917	0.03384	14279.00000	862.00000	1316.00000
1168.26290	1.47237	0.03370	14959.02414	891.75197	1365.80774	1166.25954	0.03377	14800.00000	881.00000	1351.00000
1174.45726	1.47489	0.03350	15420.71473	898.79570	1385.35375	1172.44991	0.03354	15273.00000	903.00000	1385.00000
1180.65161	1.47395	0.03358	15876.41905	861.08105	1365.26430	1178.64028	0.03353	15728.00000	875.00000	1373.00000
1186.84597	1.47272	0.03367	16371.22020	852.06070	1374.63062	1184.83065	0.03367	16201.00000	846.00000	1363.00000
1193.04032	1.47382	0.03359	16894.18264	880.38932	1418.25670	1191.02102	0.03362	16730.00000	875.00000	1408.00000
1199.23468	1.47333	0.03363	17400.55626	883.09277	1438.50993	1197.21139	0.03358	17229.00000	882.00000	1431.00000
1205.42903	1.47210	0.03372	17922.85290	876.52702	1451.32877	1203.40176	0.03372	17758.00000	882.00000	1451.00000
1211.62339	1.47188	0.03374	18412.23826	867.41129	1459.34751	1209.59213	0.03371	18250.00000	866.00000	1452.00000
1217.81774	1.47057	0.03384	18946.64823	877.09601	1488.56457	1215.78250	0.03382	18763.00000	876.00000	1481.00000
1224.01210	1.47144	0.03377	19522.38589	879.59709	1509.19454	1221.97287	0.03381	19334.00000	877.00000	1501.00000
1230.20645	1.47158	0.03376	20046.82356	877.27220	1524.48279	1228.16324	0.03373	19884.00000	882.00000	1523.00000
1236.40081	1.47083	0.03382	20578.92550	894.33634	1560.05315	1234.35361	0.03383	20387.00000	878.00000	1538.00000
1242.59516	1.47113	0.03380	21116.97255	904.50586	1587.63256	1240.54398	0.03378	20962.00000	919.00000	1596.00000
1248.78952	1.46962	0.03391	21555.61107	852.78714	1554.89973	1246.73435	0.03388	21399.00000	858.00000	1554.00000
1254.98387	1.46932	0.03394	22112.97196	897.03001	1617.04634	1252.92472	0.03394	21917.00000	878.00000	1592.00000
1261.17823	1.46850	0.03400	22669.33634	902.45329	1642.56914	1259.11509	0.03396	22498.00000	915.00000	1648.00000
1267.37258	1.46757	0.03407	23144.86310	840.51764	1600.51221	1265.30546	0.03407	22985.00000	857.00000	1611.00000
1273.56694	1.46741	0.03409	23720.39347	860.92978	1640.16254	1271.49583	0.03406	23506.00000	841.00000	1613.00000
1279.76129	1.46707	0.03411	24372.77955	913.59084	1713.85727	1277.68620	0.03414	24166.00000	906.00000	1700.00000
1285.95565	1.46795	0.03404	24945.52650	893.87771	1712.71906	1283.87657	0.03404	24754.00000	903.00000	1715.00000
1292.15000	1.46788	0.03405	25532.41484	877.59600	1717.08571	1290.06694	0.03407	25332.00000	880.00000	1713.00000
1298.34435	1.46893	0.03397	26175.67024	884.75253	1743.84376	1296.25731	0.03399	25949.00000	881.00000	1733.00000
1304.53871	1.46872	0.03398	26805.92834	868.00311	1749.48877	1302.44769	0.03397	26610.00000	881.00000	1755.00000
1310.73306	1.46950	0.03392	27432.03993	867.23944	1768.39667	1308.63806	0.03397	27196.00000	853.00000	1748.00000
1316.92742	1.47089	0.03381	28161.82657	892.73544	1814.85768	1314.82843	0.03382	27925.00000	899.00000	1813.00000
1323.12177	1.47056	0.03384	28842.74169	862.95220	1809.78507	1321.01880	0.03385	28606.00000	864.00000	1803.00000
1329.31613	1.47096	0.03381	29519.54369	871.94640	1840.50938	1327.20917	0.03381	29300.00000	874.00000	1835.00000
1335.51048	1.47055	0.03384	30183.25265	863.66515	1855.87806	1333.39954	0.03384	29944.00000	862.00000	1846.00000
1341.70484	1.47073	0.03383	30926.51890	893.32929	1909.26617	1339.58991	0.03383	30673.00000	881.00000	1889.00000
1347.89919	1.47047	0.03385	31587.63481	894.88004	1933.78118	1345.78028	0.03383	31380.00000	904.00000	1935.00000
1354.09355	1.47049	0.03385	32227.78710	859.30420	1920.99879	1351.97065	0.03387	31988.00000	867.00000	1921.00000
1360.28790	1.47029	0.03386	32929.95072	867.11433	1952.84243	1358.16102	0.03382	32704.00000	861.00000	1938.00000
1366.48226	1.46949	0.03392	33569.06337	866.55753	1975.93048	1364.35139	0.03394	33341.00000	873.00000	1975.00000
1372.67661	1.46956	0.03392	34261.83351	843.87902	1977.41556	1370.54176	0.03388	34024.00000	848.00000	1972.00000
1378.87097	1.46858	0.03400	34838.67465	870.52277	2025.26459	1376.73213	0.03401	34668.00000	855.00000	2005.00000
1385.06532	1.46872	0.03398	35121.03064	877.10458	2040.87635	1382.92250	0.03395	35059.00000	888.00000	2048.00000
1391.25968	1.46747	0.03408	35289.43299	872.38486	2045.38745	1389.11287	0.03408	35214.00000	858.00000	2029.00000
1397.45403	1.46790	0.03405	35460.60298	899.47130	2076.22465	1395.30324	0.03404	35427.00000	906.00000	2081.00000
1403.64839	1.46665	0.03415	35666.10671	869.36576	2057.56616	1401.49361	0.03412	35545.00000	870.00000	2053.00000
1409.84274	1.46699	0.03412	36323.03255	883.09719	2092.29767	1407.68398	0.03415	36050.00000	883.00000	2084.00000
1416.03710	1.46755	0.03408	37284.68636	884.03189	2124.44722	1413.87435	0.03407	36926.00000	879.00000	2107.00000
1422.23145	1.46696	0.03412	38329.42739	892.53935	2169.95631	1420.06472	0.03412	37970.00000	895.00000	2160.00000
1428.42581	1.46700	0.03412	39434.74114	878.71439	2194.22113	1426.25509	0.03411	39022.00000	881.00000	2182.00000
1434.62016	1.46639	0.03417	40575.07439	880.06733	2236.33147	1432.44546	0.03415	40203.00000	880.00000	2223.00000
1440.81452	1.46591	0.03420	41493.68414	879.47622	2268.68237	1438.63583	0.03419	41184.00000	879.00000	2257.00000
1447.00887	1.46556	0.03423	42510.04768	905.41306	2329.64168	1444.82620	0.03423	42113.00000	891.00000	2302.00000
1453.20323	1.46589	0.03421	43543.72896	892.86717	2351.79876	1451.01657	0.03422	43229.00000	914.00000	2362.00000
1459.39758	1.46571	0.03422	44405.02794	864.61268	2354.60905	1457.20694	0.03420	44070.00000	855.00000	2333.00000
1465.59194	1.46522	0.03426	45481.34063	906.97918	2434.07860	1463.39731	0.03426	45094.00000	903.00000	2417.00000
1471.78629	1.46586	0.03421	46480.51435	890.87025	2450.42996	1469.58768	0.03423	46150.00000	894.00000	2443.00000
1477.98065	1.46519	0.03426	47320.91755	868.50781	2460.07306	1475.77805	0.03422	47029.00000	883.00000	2462.00000
1484.17500	1.46360	0.03439	48225.65661	857.63729	2486.50127	1481.96842	0.03436	47881.00000	849.00000	2465.00000
1490.36935	1.46343	0.03440	49092.30051	893.89890	2551.97339	1488.15879	0.03440	48824.00000	887.00000	2536.00000
1496.56371	1.46341	0.03440	49778.04514	887.35808	2569.31210	1494.34916	0.03440	49521.00000	891.00000	2564.00000
1502.75806	1.46293	0.03444	50469.48096	863.36996	2571.81840	1500.53953	0.03442	50241.00000	875.00000	2574.00000
1508.95242	1.46214	0.03450	51158.04064	897.54966	2631.70978	1506.72990	0.03449	50884.00000	867.00000	2592.00000
1515.14677	1.46161	0.03455	51878.91086	902.58342	2663.59692	1512.92027	0.03452	51650.00000	933.00000	2684.00000
1521.34113	1.46119	0.03458	52577.57434	850.45197	2639.09526	1519.11064	0.03458	52288.00000	838.00000	2617.00000
1527.53548	1.46079	0.03461	53324.26188	911.75147	2725.80176	1525.30101	0.03458	53098.00000	907.00000	2712.00000
1533.72984	1.45996	0.03468	53919.19306	885.74627	2724.78408	1531.49138	0.03467	53680.00000	890.00000	2720.00000
1539.92419	1.45968	0.03470	54593.00479	874.24673	2738.23821	1537.68175	0.03468	54367.00000	884.00000	2739.00000
1546.11855	1.45942	0.03472	55208.54831	866.87961	2753.63478	1543.87212	0.03472	54973.00000	860.00000	2739.00000
1552.31290	1.45916	0.03474	55811.51925	888.84465	2796.92337	1550.06249	0.03472	55614.00000	887.00000	2787.00000
1558.50726	1.45815	0.03482	56431.29012	888.46797	2822.57282	1556.25286	0.03480	56172.00000	885.00000	2809.00000
1564.70161	1.45825	0.03481	57011.94896	890.80855	2844.60669	1562.44323	0.03483	56858.00000	895.00000	2844.00000
1570.89597	1.45778	0.03485	57413.89650	869.93991	2840.60574	1568.63360	0.03482	57231.00000	876.00000	2838.00000
1577.09032	1.45715	0.03490	57979.03512	879.44141	2872.33011	1574.82397	0.03491	57786.00000	871.00000	2858.00000
1583.28468	1.45733	0.03489	58450.11400	894.72676	2902.69902	1581.01434	0.03487	58279.00000	894.00000	2895.00000
1589.47903	1.45673	0.03494	58825.25008	895.18773	2918.99289	1587.20471	0.03494	58712.00000	892.00000	2912.00000
1595.67339	1.45692	0.03492	59146.72764	885.70009	2920.20958	1593.39508	0.03491	59009.00000	896.00000	2925.00000
1601.86774	1.45641	0.03496	59574.82387	893.37146	2944.94194	1599.58545	0.03495	59419.00000	877.00000	2923.00000
1608.06210	1.45592	0.03500	59920.72690	909.46488	2974.93691	1605.77582	0.03498	59809.00000	920.00000	2980.00000
1614.25645	1.45527	0.03505	60220.95853	887.30010	2967.12919	1611.96619	0.03504	60102.00000	882.00000	2957.00000
1620.45081	1.45500	0.03507	60438.83040	897.12192	2985.54280	1618.15656	0.03507	60391.00000	905.00000	2991.00000
1626.64516	1.45426	0.03513	60579.30309	884.35356	2981.71578	1624.34693	0.03510	60502.00000	878.00000	2971.00000
1632.83952	1.45342	0.03520	60848.95373	899.57786	3009.95573	1630.53730	0.03519	60754.00000	903.00000	3009.00000
1639.03387	1.45312	0.03523	60928.35809	870.27700	2985.97198	1636.72767	0.03522	60938.00000	879.00000	2994.00000
1645.22823	1.45291	0.03524	60778.06969	873.98452	2985.28021	1642.91804	0.03524	60849.00000	868.00000	2982.00000
1651.42258	1.45202	0.03532	59777.88214	914.49031	2993.33500	1649.10841	0.03527	60357.00000	896.00000	2993.00000
1657.61694	1.45049	0.03544	57642.70006	920.63108	2930.93992	1655.29878	0.03541	58452.00000	931.00000	2968.00000
1663.81129	1.45057	0.03543	56689.89176	898.36344	2875.34634	1661.48915	0.03544	56762.00000	897.00000	2877.00000
1670.00565	1.44933	0.03554	55553.85124	917.06266	2858.55536	1667.67952	0.03547	56404.00000	914.00000	2882.00000
1676.20000	1.44724	0.03571	52318.47966	879.24303	2716.11971	1673.86989	0.03567	53497.00000	901.00000	2777.00000
0.00000	0.00000	0.00000	0.00000	0.00000	0.00000	1680.06026	0.03574	50136.00000	860.00000	2621.00000
0.00000	0.00000	0.00000	0.00000	0.00000	0.00000	1686.25063	0.03581	46019.00000	923.00000	2538.00000
0.00000	0.00000	0.00000	0.00000	0.00000	0.00000	1692.44100	0.03581	46019.00000	923.00000	2538.00000
