'File ¾Æ_5_2016Ò»ÔÂ28_1113.xls
'Part ID ¾Æ_5
'Scan Created 2016/1/28 11:13:25
'Instrument S1-00205
'Version 1.5.7
'Integration Time 10100 µs
'Number of Scans 50
'Units Absorbance
'Thermistor 47.43
Wavelength	Absorbance	Normalized	100%	dark	Raw 1	Native Wvl	Native Norm	Native 100%	Native dark	Native 1
908.10000	1.39390	0.04037	3595.82598	881.87120	991.55825	906.26400	0.04101	3684.00000	880.00000	995.00000
914.29435	1.40060	0.03976	3338.07467	866.26472	964.47385	912.45437	0.03956	3404.00000	876.00000	976.00000
920.48871	1.38441	0.04127	3265.72768	878.51909	977.05827	918.64474	0.04088	3257.00000	860.00000	958.00000
926.68306	1.38004	0.04168	3334.01990	918.74175	1019.39180	924.83511	0.04167	3324.00000	924.00000	1024.00000
932.87742	1.37334	0.04233	3389.36197	864.93184	971.83936	931.02548	0.04194	3355.00000	875.00000	979.00000
939.07177	1.36558	0.04309	3619.59224	884.95115	1002.74898	937.21585	0.04317	3537.00000	873.00000	988.00000
945.26613	1.37462	0.04221	3856.44440	889.93616	1015.16906	943.40622	0.04238	3802.00000	900.00000	1023.00000
951.46048	1.37896	0.04179	4005.12223	859.91735	991.35321	949.59659	0.04199	3955.00000	859.00000	989.00000
957.65484	1.39730	0.04006	4215.51392	893.73656	1026.75486	955.78696	0.04076	4148.00000	885.00000	1018.00000
963.84919	1.41096	0.03882	4374.23623	878.43417	1014.19385	961.97733	0.03881	4344.00000	891.00000	1025.00000
970.04355	1.41207	0.03872	4523.41127	896.06510	1036.45327	968.16770	0.03908	4453.00000	871.00000	1011.00000
976.23790	1.42466	0.03761	4726.50938	925.04592	1068.08262	974.35807	0.03762	4693.00000	945.00000	1086.00000
982.43226	1.41641	0.03833	4835.26800	856.06452	1008.57757	980.54844	0.03823	4778.00000	854.00000	1004.00000
988.62661	1.41905	0.03810	5079.18703	905.14928	1064.19539	986.73881	0.03818	5013.00000	901.00000	1058.00000
994.82097	1.41897	0.03811	5288.13901	870.37131	1038.73530	992.92918	0.03806	5216.00000	881.00000	1046.00000
1001.01532	1.41739	0.03825	5547.24444	876.96250	1055.57812	999.11955	0.03824	5470.00000	867.00000	1043.00000
1007.20968	1.41616	0.03836	5821.73207	889.84005	1079.02875	1005.30992	0.03828	5729.00000	896.00000	1081.00000
1013.40403	1.41351	0.03859	6108.36987	875.33513	1077.26387	1011.50029	0.03856	6031.00000	870.00000	1069.00000
1019.59839	1.40801	0.03908	6349.51155	919.49996	1131.74690	1017.69066	0.03880	6269.00000	908.00000	1116.00000
1025.79274	1.39618	0.04016	6610.09178	908.88037	1137.84201	1023.88103	0.03989	6536.00000	921.00000	1145.00000
1031.98710	1.39029	0.04071	6863.27600	885.10537	1128.47469	1030.07140	0.04056	6776.00000	883.00000	1122.00000
1038.18145	1.38244	0.04145	7137.95533	879.30949	1138.78325	1036.26177	0.04117	7062.00000	892.00000	1146.00000
1044.37581	1.37788	0.04189	7415.45215	852.78191	1127.65422	1042.45214	0.04192	7313.00000	848.00000	1119.00000
1050.57016	1.37799	0.04188	7763.75520	889.74850	1177.67185	1048.64251	0.04174	7664.00000	884.00000	1167.00000
1056.76452	1.37158	0.04250	8043.98752	873.54577	1178.28619	1054.83288	0.04239	7958.00000	881.00000	1181.00000
1062.95887	1.37044	0.04261	8346.47029	875.55305	1193.93110	1061.02325	0.04256	8246.00000	868.00000	1182.00000
1069.15323	1.36619	0.04303	8651.05608	883.28349	1217.55995	1067.21362	0.04287	8564.00000	890.00000	1219.00000
1075.34758	1.36163	0.04349	8931.01237	859.29405	1210.32527	1073.40399	0.04338	8836.00000	860.00000	1206.00000
1081.54194	1.36315	0.04334	9243.78719	871.40916	1234.22102	1079.59436	0.04348	9149.00000	870.00000	1230.00000
1087.73629	1.36913	0.04274	9580.78777	901.76500	1272.74615	1085.78473	0.04290	9462.00000	883.00000	1251.00000
1093.93065	1.37181	0.04248	9940.76391	922.65990	1305.75959	1091.97510	0.04255	9841.00000	933.00000	1312.00000
1100.12500	1.37488	0.04218	10254.38783	869.25749	1265.12768	1098.16547	0.04231	10144.00000	878.00000	1270.00000
1106.31935	1.37919	0.04177	10641.04469	875.00467	1282.89568	1104.35584	0.04188	10519.00000	873.00000	1277.00000
1112.51371	1.38361	0.04134	11015.80766	872.41348	1291.75178	1110.54621	0.04150	10897.00000	874.00000	1290.00000
1118.70806	1.38981	0.04076	11401.60672	872.77123	1301.89604	1116.73658	0.04094	11276.00000	871.00000	1297.00000
1124.90242	1.40054	0.03976	11814.30888	885.70510	1320.22399	1122.92695	0.04019	11680.00000	881.00000	1315.00000
1131.09677	1.41949	0.03806	12236.17715	886.26842	1318.27199	1129.11732	0.03862	12103.00000	890.00000	1323.00000
1137.29113	1.43516	0.03671	12606.57558	854.95675	1286.43679	1135.30769	0.03706	12498.00000	867.00000	1298.00000
1143.48548	1.44532	0.03587	12995.31207	851.62722	1287.14396	1141.49806	0.03614	12851.00000	843.00000	1277.00000
1149.67984	1.45370	0.03518	13491.13514	894.93569	1338.08946	1147.68843	0.03534	13335.00000	884.00000	1324.00000
1155.87419	1.45621	0.03498	13953.07917	885.15852	1342.23497	1153.87880	0.03501	13805.00000	896.00000	1348.00000
1162.06855	1.45637	0.03497	14446.12872	862.12568	1337.10533	1160.06917	0.03496	14279.00000	862.00000	1331.00000
1168.26290	1.45823	0.03482	14959.02414	891.75197	1381.49499	1166.25954	0.03492	14800.00000	881.00000	1367.00000
1174.45726	1.46155	0.03455	15420.71473	898.79570	1400.54868	1172.44991	0.03459	15273.00000	903.00000	1400.00000
1180.65161	1.46032	0.03465	15876.41905	861.08105	1381.32669	1178.64028	0.03461	15728.00000	875.00000	1389.00000
1186.84597	1.45940	0.03472	16371.22020	852.06070	1390.91281	1184.83065	0.03471	16201.00000	846.00000	1379.00000
1193.04032	1.46027	0.03465	16894.18264	880.38932	1435.29115	1191.02102	0.03469	16730.00000	875.00000	1425.00000
1199.23468	1.46001	0.03467	17400.55626	883.09277	1455.81877	1197.21139	0.03462	17229.00000	882.00000	1448.00000
1205.42903	1.45876	0.03477	17922.85290	876.52702	1469.25487	1203.40176	0.03478	17758.00000	882.00000	1469.00000
1211.62339	1.46000	0.03467	18412.23826	867.41129	1475.75917	1209.59213	0.03469	18250.00000	866.00000	1469.00000
1217.81774	1.45897	0.03476	18946.64823	877.09601	1505.13096	1215.78250	0.03472	18763.00000	876.00000	1497.00000
1224.01210	1.45912	0.03474	19522.38589	879.59709	1527.29972	1221.97287	0.03478	19334.00000	877.00000	1519.00000
1230.20645	1.45938	0.03472	20046.82356	877.27220	1542.92797	1228.16324	0.03468	19884.00000	882.00000	1541.00000
1236.40081	1.45904	0.03475	20578.92550	894.33634	1578.33876	1234.35361	0.03480	20387.00000	878.00000	1557.00000
1242.59516	1.46001	0.03467	21116.97255	904.50586	1605.35900	1240.54398	0.03463	20962.00000	919.00000	1613.00000
1248.78952	1.45734	0.03489	21555.61107	852.78714	1575.02323	1246.73435	0.03486	21399.00000	858.00000	1574.00000
1254.98387	1.45822	0.03482	22112.97196	897.03001	1635.67560	1252.92472	0.03484	21917.00000	878.00000	1611.00000
1261.17823	1.45708	0.03491	22669.33634	902.45329	1662.30154	1259.11509	0.03484	22498.00000	915.00000	1667.00000
1267.37258	1.45577	0.03501	23144.86310	840.51764	1621.43421	1265.30546	0.03502	22985.00000	857.00000	1632.00000
1273.56694	1.45655	0.03495	23720.39347	860.92978	1659.88744	1271.49583	0.03494	23506.00000	841.00000	1633.00000
1279.76129	1.45608	0.03499	24372.77955	913.59084	1734.36942	1277.68620	0.03500	24166.00000	906.00000	1720.00000
1285.95565	1.45725	0.03489	24945.52650	893.87771	1733.13639	1283.87657	0.03493	24754.00000	903.00000	1736.00000
1292.15000	1.45813	0.03482	25532.41484	877.59600	1736.14642	1290.06694	0.03484	25332.00000	880.00000	1732.00000
1298.34435	1.45766	0.03486	26175.67024	884.75253	1766.43256	1296.25731	0.03483	25949.00000	881.00000	1754.00000
1304.53871	1.45770	0.03486	26805.92834	868.00311	1772.12169	1302.44769	0.03490	26610.00000	881.00000	1779.00000
1310.73306	1.46061	0.03463	27432.03993	867.23944	1787.04813	1308.63806	0.03470	27196.00000	853.00000	1767.00000
1316.92742	1.46132	0.03457	28161.82657	892.73544	1835.39121	1314.82843	0.03456	27925.00000	899.00000	1833.00000
1323.12177	1.46093	0.03460	28842.74169	862.95220	1831.03408	1321.01880	0.03460	28606.00000	864.00000	1824.00000
1329.31613	1.46099	0.03459	29519.54369	871.94640	1863.01832	1327.20917	0.03458	29300.00000	874.00000	1857.00000
1335.51048	1.46073	0.03462	30183.25265	863.66515	1878.55517	1333.39954	0.03463	29944.00000	862.00000	1869.00000
1341.70484	1.46135	0.03457	30926.51890	893.32929	1931.46967	1339.58991	0.03457	30673.00000	881.00000	1911.00000
1347.89919	1.46190	0.03452	31587.63481	894.88004	1954.45374	1345.78028	0.03455	31380.00000	904.00000	1957.00000
1354.09355	1.46223	0.03450	32227.78710	859.30420	1941.41436	1351.97065	0.03448	31988.00000	867.00000	1940.00000
1360.28790	1.46079	0.03461	32929.95072	867.11433	1976.82486	1358.16102	0.03458	32704.00000	861.00000	1962.00000
1366.48226	1.46019	0.03466	33569.06337	866.55753	1999.98780	1364.35139	0.03465	33341.00000	873.00000	1998.00000
1372.67661	1.46014	0.03466	34261.83351	843.87902	2002.24021	1370.54176	0.03466	34024.00000	848.00000	1998.00000
1378.87097	1.46014	0.03466	34838.67465	870.52277	2047.95042	1376.73213	0.03466	34668.00000	855.00000	2027.00000
1385.06532	1.45970	0.03470	35121.03064	877.10458	2065.28507	1382.92250	0.03468	35059.00000	888.00000	2073.00000
1391.25968	1.45854	0.03479	35289.43299	872.38486	2069.76516	1389.11287	0.03475	35214.00000	858.00000	2052.00000
1397.45403	1.45852	0.03479	35460.60298	899.47130	2101.92328	1395.30324	0.03482	35427.00000	906.00000	2108.00000
1403.64839	1.45860	0.03479	35666.10671	869.36576	2079.80361	1401.49361	0.03475	35545.00000	870.00000	2075.00000
1409.84274	1.45785	0.03485	36323.03255	883.09719	2118.00909	1407.68398	0.03486	36050.00000	883.00000	2109.00000
1416.03710	1.45922	0.03474	37284.68636	884.03189	2148.44673	1413.87435	0.03476	36926.00000	879.00000	2132.00000
1422.23145	1.45896	0.03476	38329.42739	892.53935	2193.71836	1420.06472	0.03474	37970.00000	895.00000	2183.00000
1428.42581	1.45834	0.03481	39434.74114	878.71439	2220.72028	1426.25509	0.03479	39022.00000	881.00000	2208.00000
1434.62016	1.45835	0.03481	40575.07439	880.06733	2261.66179	1432.44546	0.03481	40203.00000	880.00000	2249.00000
1440.81452	1.45862	0.03478	41493.68414	879.47622	2292.18617	1438.63583	0.03478	41184.00000	879.00000	2281.00000
1447.00887	1.45790	0.03484	42510.04768	905.41306	2355.01916	1444.82620	0.03481	42113.00000	891.00000	2326.00000
1453.20323	1.45754	0.03487	43543.72896	892.86717	2380.11382	1451.01657	0.03488	43229.00000	914.00000	2390.00000
1459.39758	1.45824	0.03481	44405.02794	864.61268	2380.45017	1457.20694	0.03483	44070.00000	855.00000	2360.00000
1465.59194	1.45787	0.03484	45481.34063	906.97918	2460.15167	1463.39731	0.03483	45094.00000	903.00000	2442.00000
1471.78629	1.45762	0.03486	46480.51435	890.87025	2480.28793	1469.58768	0.03487	46150.00000	894.00000	2472.00000
1477.98065	1.45715	0.03490	47320.91755	868.50781	2489.80179	1475.77805	0.03487	47029.00000	883.00000	2492.00000
1484.17500	1.45605	0.03499	48225.65661	857.63729	2515.05722	1481.96842	0.03498	47881.00000	849.00000	2494.00000
1490.36935	1.45616	0.03498	49092.30051	893.89890	2579.97364	1488.15879	0.03498	48824.00000	887.00000	2564.00000
1496.56371	1.45568	0.03502	49778.04514	887.35808	2599.52341	1494.34916	0.03500	49521.00000	891.00000	2593.00000
1502.75806	1.45490	0.03508	50469.48096	863.36996	2603.71196	1500.53953	0.03506	50241.00000	875.00000	2606.00000
1508.95242	1.45505	0.03507	51158.04064	897.54966	2660.25205	1506.72990	0.03509	50884.00000	867.00000	2622.00000
1515.14677	1.45489	0.03508	51878.91086	902.58342	2691.04225	1512.92027	0.03506	51650.00000	933.00000	2711.00000
1521.34113	1.45415	0.03514	52577.57434	850.45197	2668.30989	1519.11064	0.03514	52288.00000	838.00000	2646.00000
1527.53548	1.45385	0.03517	53324.26188	911.75147	2755.02039	1525.30101	0.03514	53098.00000	907.00000	2741.00000
1533.72984	1.45286	0.03525	53919.19306	885.74627	2755.07500	1531.49138	0.03523	53680.00000	890.00000	2750.00000
1539.92419	1.45291	0.03524	54593.00479	874.24673	2767.54651	1537.68175	0.03524	54367.00000	884.00000	2769.00000
1546.11855	1.45250	0.03528	55208.54831	866.87961	2783.91815	1543.87212	0.03526	54973.00000	860.00000	2768.00000
1552.31290	1.45164	0.03535	55811.51925	888.84465	2830.24599	1550.06249	0.03532	55614.00000	887.00000	2820.00000
1558.50726	1.45126	0.03538	56431.29012	888.46797	2853.47581	1556.25286	0.03538	56172.00000	885.00000	2841.00000
1564.70161	1.45149	0.03536	57011.94896	890.80855	2875.24009	1562.44323	0.03536	56858.00000	895.00000	2874.00000
1570.89597	1.45082	0.03541	57413.89650	869.93991	2872.42732	1568.63360	0.03538	57231.00000	876.00000	2870.00000
1577.09032	1.45040	0.03545	57979.03512	879.44141	2903.54792	1574.82397	0.03546	57786.00000	871.00000	2889.00000
1583.28468	1.45048	0.03544	58450.11400	894.72676	2934.61441	1581.01434	0.03543	58279.00000	894.00000	2927.00000
1589.47903	1.45026	0.03546	58825.25008	895.18773	2949.40343	1587.20471	0.03547	58712.00000	892.00000	2943.00000
1595.67339	1.45049	0.03544	59146.72764	885.70009	2950.54822	1593.39508	0.03543	59009.00000	896.00000	2955.00000
1601.86774	1.44993	0.03549	59574.82387	893.37146	2975.79046	1599.58545	0.03548	59419.00000	877.00000	2954.00000
1608.06210	1.44975	0.03550	59920.72690	909.46488	3004.48733	1605.77582	0.03549	59809.00000	920.00000	3010.00000
1614.25645	1.44931	0.03554	60220.95853	887.30010	2995.86314	1611.96619	0.03553	60102.00000	882.00000	2986.00000
1620.45081	1.44937	0.03553	60438.83040	897.12192	3012.78536	1618.15656	0.03554	60391.00000	905.00000	3019.00000
1626.64516	1.44897	0.03557	60579.30309	884.35356	3007.41704	1624.34693	0.03554	60502.00000	878.00000	2997.00000
1632.83952	1.44800	0.03564	60848.95373	899.57786	3036.45877	1630.53730	0.03562	60754.00000	903.00000	3035.00000
1639.03387	1.44768	0.03567	60928.35809	870.27700	3012.63419	1636.72767	0.03566	60938.00000	879.00000	3021.00000
1645.22823	1.44755	0.03568	60778.06969	873.98452	3011.50221	1642.91804	0.03568	60849.00000	868.00000	3008.00000
1651.42258	1.44639	0.03578	59777.88214	914.49031	3020.46534	1649.10841	0.03572	60357.00000	896.00000	3020.00000
1657.61694	1.44470	0.03592	57642.70006	920.63108	2957.95040	1655.29878	0.03588	58452.00000	931.00000	2995.00000
1663.81129	1.44473	0.03591	56689.89176	898.36344	2902.12104	1661.48915	0.03593	56762.00000	897.00000	2904.00000
1670.00565	1.44369	0.03600	55553.85124	917.06266	2883.89727	1667.67952	0.03593	56404.00000	914.00000	2908.00000
1676.20000	1.44181	0.03616	52318.47966	879.24303	2739.22402	1673.86989	0.03612	53497.00000	901.00000	2801.00000
0.00000	0.00000	0.00000	0.00000	0.00000	0.00000	1680.06026	0.03618	50136.00000	860.00000	2643.00000
0.00000	0.00000	0.00000	0.00000	0.00000	0.00000	1686.25063	0.03630	46019.00000	923.00000	2560.00000
0.00000	0.00000	0.00000	0.00000	0.00000	0.00000	1692.44100	0.03630	46019.00000	923.00000	2560.00000
