'File ¾Æ_2_2016Ò»ÔÂ28_1113.xls
'Part ID ¾Æ_2
'Scan Created 2016/1/28 11:13:12
'Instrument S1-00205
'Version 1.5.7
'Integration Time 10100 µs
'Number of Scans 50
'Units Absorbance
'Thermistor 47.43
Wavelength	Absorbance	Normalized	100%	dark	Raw 1	Native Wvl	Native Norm	Native 100%	Native dark	Native 1
908.10000	1.36975	0.04268	3595.82598	881.87120	997.80839	906.26400	0.04315	3684.00000	880.00000	1001.00000
914.29435	1.36898	0.04276	3338.07467	866.26472	971.89613	912.45437	0.04233	3404.00000	876.00000	983.00000
920.48871	1.35136	0.04453	3265.72768	878.51909	984.84862	918.64474	0.04422	3257.00000	860.00000	966.00000
926.68306	1.35088	0.04458	3334.01990	918.74175	1026.38082	924.83511	0.04458	3324.00000	924.00000	1031.00000
932.87742	1.33902	0.04581	3389.36197	864.93184	980.63019	931.02548	0.04516	3355.00000	875.00000	987.00000
939.07177	1.32384	0.04744	3619.59224	884.95115	1014.64476	937.21585	0.04730	3537.00000	873.00000	999.00000
945.26613	1.33230	0.04653	3856.44440	889.93616	1027.96607	943.40622	0.04686	3802.00000	900.00000	1036.00000
951.46048	1.34065	0.04564	4005.12223	859.91735	1003.49281	949.59659	0.04587	3955.00000	859.00000	1001.00000
957.65484	1.35657	0.04400	4215.51392	893.73656	1039.83480	955.78696	0.04474	4148.00000	885.00000	1031.00000
963.84919	1.37701	0.04197	4374.23623	878.43417	1025.21290	961.97733	0.04228	4344.00000	891.00000	1037.00000
970.04355	1.37929	0.04175	4523.41127	896.06510	1047.49805	968.16770	0.04188	4453.00000	871.00000	1021.00000
976.23790	1.38416	0.04129	4726.50938	925.04592	1082.02258	974.35807	0.04136	4693.00000	945.00000	1100.00000
982.43226	1.38468	0.04124	4835.26800	856.06452	1020.15573	980.54844	0.04128	4778.00000	854.00000	1016.00000
988.62661	1.38633	0.04108	5079.18703	905.14928	1076.64643	986.73881	0.04110	5013.00000	901.00000	1070.00000
994.82097	1.38729	0.04099	5288.13901	870.37131	1051.46133	992.92918	0.04106	5216.00000	881.00000	1059.00000
1001.01532	1.38865	0.04086	5547.24444	876.96250	1067.80528	999.11955	0.04084	5470.00000	867.00000	1055.00000
1007.20968	1.38289	0.04141	5821.73207	889.84005	1094.10257	1005.30992	0.04118	5729.00000	896.00000	1095.00000
1013.40403	1.37790	0.04189	6108.36987	875.33513	1094.51094	1011.50029	0.04185	6031.00000	870.00000	1086.00000
1019.59839	1.37459	0.04221	6349.51155	919.49996	1148.71565	1017.69066	0.04197	6269.00000	908.00000	1133.00000
1025.79274	1.36133	0.04352	6610.09178	908.88037	1156.99050	1023.88103	0.04310	6536.00000	921.00000	1163.00000
1031.98710	1.35134	0.04453	6863.27600	885.10537	1151.28612	1030.07140	0.04429	6776.00000	883.00000	1144.00000
1038.18145	1.33953	0.04576	7137.95533	879.30949	1165.75060	1036.26177	0.04522	7062.00000	892.00000	1171.00000
1044.37581	1.32787	0.04700	7415.45215	852.78191	1161.19311	1042.45214	0.04687	7313.00000	848.00000	1151.00000
1050.57016	1.32802	0.04699	7763.75520	889.74850	1212.76816	1048.64251	0.04690	7664.00000	884.00000	1202.00000
1056.76452	1.32132	0.04772	8043.98752	873.54577	1215.69909	1054.83288	0.04748	7958.00000	881.00000	1217.00000
1062.95887	1.31681	0.04822	8346.47029	875.55305	1235.75667	1061.02325	0.04812	8246.00000	868.00000	1223.00000
1069.15323	1.31242	0.04871	8651.05608	883.28349	1261.65250	1067.21362	0.04848	8564.00000	890.00000	1262.00000
1075.34758	1.30850	0.04915	8931.01237	859.29405	1255.96761	1073.40399	0.04915	8836.00000	860.00000	1252.00000
1081.54194	1.31099	0.04887	9243.78719	871.40916	1280.57070	1079.59436	0.04892	9149.00000	870.00000	1275.00000
1087.73629	1.31403	0.04853	9580.78777	901.76500	1322.88904	1085.78473	0.04872	9462.00000	883.00000	1301.00000
1093.93065	1.31921	0.04795	9940.76391	922.65990	1355.11213	1091.97510	0.04805	9841.00000	933.00000	1361.00000
1100.12500	1.32214	0.04763	10254.38783	869.25749	1316.23171	1098.16547	0.04781	10144.00000	878.00000	1321.00000
1106.31935	1.32956	0.04682	10641.04469	875.00467	1332.26749	1104.35584	0.04707	10519.00000	873.00000	1327.00000
1112.51371	1.33514	0.04622	11015.80766	872.41348	1341.29083	1110.54621	0.04639	10897.00000	874.00000	1339.00000
1118.70806	1.34509	0.04518	11401.60672	872.77123	1348.39139	1116.73658	0.04565	11276.00000	871.00000	1346.00000
1124.90242	1.36364	0.04329	11814.30888	885.70510	1358.81535	1122.92695	0.04389	11680.00000	881.00000	1355.00000
1131.09677	1.38771	0.04095	12236.17715	886.26842	1351.03644	1129.11732	0.04183	12103.00000	890.00000	1359.00000
1137.29113	1.41681	0.03830	12606.57558	854.95675	1305.07241	1135.30769	0.03903	12498.00000	867.00000	1321.00000
1143.48548	1.43504	0.03673	12995.31207	851.62722	1297.58673	1141.49806	0.03714	12851.00000	843.00000	1289.00000
1149.67984	1.44558	0.03584	13491.13514	894.93569	1346.44748	1147.68843	0.03606	13335.00000	884.00000	1333.00000
1155.87419	1.44998	0.03548	13953.07917	885.15852	1348.84680	1153.87880	0.03556	13805.00000	896.00000	1355.00000
1162.06855	1.45129	0.03538	14446.12872	862.12568	1342.67764	1160.06917	0.03540	14279.00000	862.00000	1337.00000
1168.26290	1.45366	0.03518	14959.02414	891.75197	1386.69084	1166.25954	0.03528	14800.00000	881.00000	1372.00000
1174.45726	1.45820	0.03482	15420.71473	898.79570	1404.39889	1172.44991	0.03493	15273.00000	903.00000	1405.00000
1180.65161	1.45795	0.03484	15876.41905	861.08105	1384.20842	1178.64028	0.03474	15728.00000	875.00000	1391.00000
1186.84597	1.45422	0.03514	16371.22020	852.06070	1397.35281	1184.83065	0.03510	16201.00000	846.00000	1385.00000
1193.04032	1.45552	0.03503	16894.18264	880.38932	1441.41995	1191.02102	0.03507	16730.00000	875.00000	1431.00000
1199.23468	1.45626	0.03497	17400.55626	883.09277	1460.75685	1197.21139	0.03499	17229.00000	882.00000	1454.00000
1205.42903	1.45620	0.03498	17922.85290	876.52702	1472.78645	1203.40176	0.03496	17758.00000	882.00000	1472.00000
1211.62339	1.45534	0.03505	18412.23826	867.41129	1482.31212	1209.59213	0.03503	18250.00000	866.00000	1475.00000
1217.81774	1.45531	0.03505	18946.64823	877.09601	1510.43912	1215.78250	0.03505	18763.00000	876.00000	1503.00000
1224.01210	1.45505	0.03507	19522.38589	879.59709	1533.41912	1221.97287	0.03505	19334.00000	877.00000	1524.00000
1230.20645	1.45323	0.03522	20046.82356	877.27220	1552.41452	1228.16324	0.03515	19884.00000	882.00000	1550.00000
1236.40081	1.45354	0.03519	20578.92550	894.33634	1587.06727	1234.35361	0.03527	20387.00000	878.00000	1566.00000
1242.59516	1.45406	0.03515	21116.97255	904.50586	1615.03199	1240.54398	0.03507	20962.00000	919.00000	1622.00000
1248.78952	1.45075	0.03542	21555.61107	852.78714	1586.06765	1246.73435	0.03539	21399.00000	858.00000	1585.00000
1254.98387	1.45284	0.03525	22112.97196	897.03001	1644.89910	1252.92472	0.03532	21917.00000	878.00000	1621.00000
1261.17823	1.45259	0.03527	22669.33634	902.45329	1670.18524	1259.11509	0.03521	22498.00000	915.00000	1675.00000
1267.37258	1.45014	0.03547	23144.86310	840.51764	1631.64269	1265.30546	0.03543	22985.00000	857.00000	1641.00000
1273.56694	1.45023	0.03546	23720.39347	860.92978	1671.58383	1271.49583	0.03547	23506.00000	841.00000	1645.00000
1279.76129	1.45104	0.03540	24372.77955	913.59084	1743.95941	1277.68620	0.03543	24166.00000	906.00000	1730.00000
1285.95565	1.45182	0.03533	24945.52650	893.87771	1743.70766	1283.87657	0.03534	24754.00000	903.00000	1746.00000
1292.15000	1.45296	0.03524	25532.41484	877.59600	1746.42629	1290.06694	0.03529	25332.00000	880.00000	1743.00000
1298.34435	1.45415	0.03514	26175.67024	884.75253	1773.59034	1296.25731	0.03514	25949.00000	881.00000	1762.00000
1304.53871	1.45399	0.03516	26805.92834	868.00311	1779.88892	1302.44769	0.03517	26610.00000	881.00000	1786.00000
1310.73306	1.45659	0.03495	27432.03993	867.23944	1795.59161	1308.63806	0.03504	27196.00000	853.00000	1776.00000
1316.92742	1.45816	0.03482	28161.82657	892.73544	1842.30672	1314.82843	0.03482	27925.00000	899.00000	1840.00000
1323.12177	1.45812	0.03482	28842.74169	862.95220	1837.28856	1321.01880	0.03486	28606.00000	864.00000	1831.00000
1329.31613	1.45962	0.03470	29519.54369	871.94640	1866.14395	1327.20917	0.03472	29300.00000	874.00000	1861.00000
1335.51048	1.46010	0.03467	30183.25265	863.66515	1880.04131	1333.39954	0.03470	29944.00000	862.00000	1871.00000
1341.70484	1.46081	0.03461	30926.51890	893.32929	1932.76090	1339.58991	0.03461	30673.00000	881.00000	1912.00000
1347.89919	1.46014	0.03466	31587.63481	894.88004	1958.76169	1345.78028	0.03465	31380.00000	904.00000	1960.00000
1354.09355	1.46091	0.03460	32227.78710	859.30420	1944.67275	1351.97065	0.03464	31988.00000	867.00000	1945.00000
1360.28790	1.46147	0.03456	32929.95072	867.11433	1975.10766	1358.16102	0.03454	32704.00000	861.00000	1961.00000
1366.48226	1.46043	0.03464	33569.06337	866.55753	1999.34067	1364.35139	0.03462	33341.00000	873.00000	1997.00000
1372.67661	1.45989	0.03468	34261.83351	843.87902	2002.89478	1370.54176	0.03466	34024.00000	848.00000	1998.00000
1378.87097	1.46016	0.03466	34838.67465	870.52277	2047.88138	1376.73213	0.03469	34668.00000	855.00000	2028.00000
1385.06532	1.46026	0.03465	35121.03064	877.10458	2063.77275	1382.92250	0.03462	35059.00000	888.00000	2071.00000
1391.25968	1.45872	0.03478	35289.43299	872.38486	2069.26993	1389.11287	0.03475	35214.00000	858.00000	2052.00000
1397.45403	1.45912	0.03474	35460.60298	899.47130	2100.26477	1395.30324	0.03476	35427.00000	906.00000	2106.00000
1403.64839	1.45938	0.03472	35666.10671	869.36576	2077.64016	1401.49361	0.03472	35545.00000	870.00000	2074.00000
1409.84274	1.45967	0.03470	36323.03255	883.09719	2112.83465	1407.68398	0.03472	36050.00000	883.00000	2104.00000
1416.03710	1.45966	0.03470	37284.68636	884.03189	2147.19855	1413.87435	0.03468	36926.00000	879.00000	2129.00000
1422.23145	1.45949	0.03471	38329.42739	892.53935	2192.10375	1420.06472	0.03474	37970.00000	895.00000	2183.00000
1428.42581	1.45986	0.03469	39434.74114	878.71439	2216.07159	1426.25509	0.03466	39022.00000	881.00000	2203.00000
1434.62016	1.45879	0.03477	40575.07439	880.06733	2260.24825	1432.44546	0.03476	40203.00000	880.00000	2247.00000
1440.81452	1.45943	0.03472	41493.68414	879.47622	2289.58018	1438.63583	0.03474	41184.00000	879.00000	2279.00000
1447.00887	1.45937	0.03472	42510.04768	905.41306	2350.08700	1444.82620	0.03471	42113.00000	891.00000	2322.00000
1453.20323	1.45923	0.03474	43543.72896	892.86717	2374.35082	1451.01657	0.03474	43229.00000	914.00000	2384.00000
1459.39758	1.45974	0.03469	44405.02794	864.61268	2375.23387	1457.20694	0.03471	44070.00000	855.00000	2355.00000
1465.59194	1.46024	0.03465	45481.34063	906.97918	2451.67633	1463.39731	0.03467	45094.00000	903.00000	2435.00000
1471.78629	1.46018	0.03466	46480.51435	890.87025	2470.98086	1469.58768	0.03465	46150.00000	894.00000	2462.00000
1477.98065	1.45954	0.03471	47320.91755	868.50781	2480.88418	1475.77805	0.03469	47029.00000	883.00000	2484.00000
1484.17500	1.45883	0.03477	48225.65661	857.63729	2504.51857	1481.96842	0.03474	47881.00000	849.00000	2483.00000
1490.36935	1.45862	0.03478	49092.30051	893.89890	2570.43006	1488.15879	0.03480	48824.00000	887.00000	2555.00000
1496.56371	1.45899	0.03475	49778.04514	887.35808	2586.52238	1494.34916	0.03475	49521.00000	891.00000	2581.00000
1502.75806	1.45852	0.03479	50469.48096	863.36996	2589.27864	1500.53953	0.03478	50241.00000	875.00000	2592.00000
1508.95242	1.45878	0.03477	51158.04064	897.54966	2645.14753	1506.72990	0.03479	50884.00000	867.00000	2607.00000
1515.14677	1.45852	0.03479	51878.91086	902.58342	2676.15786	1512.92027	0.03476	51650.00000	933.00000	2696.00000
1521.34113	1.45786	0.03484	52577.57434	850.45197	2652.85786	1519.11064	0.03485	52288.00000	838.00000	2631.00000
1527.53548	1.45816	0.03482	53324.26188	911.75147	2736.81645	1525.30101	0.03481	53098.00000	907.00000	2724.00000
1533.72984	1.45762	0.03486	53919.19306	885.74627	2734.72656	1531.49138	0.03486	53680.00000	890.00000	2730.00000
1539.92419	1.45743	0.03488	54593.00479	874.24673	2747.92746	1537.68175	0.03487	54367.00000	884.00000	2749.00000
1546.11855	1.45737	0.03488	55208.54831	866.87961	2762.54990	1543.87212	0.03489	54973.00000	860.00000	2748.00000
1552.31290	1.45714	0.03490	55811.51925	888.84465	2805.78477	1550.06249	0.03488	55614.00000	887.00000	2796.00000
1558.50726	1.45654	0.03495	56431.29012	888.46797	2829.72341	1556.25286	0.03494	56172.00000	885.00000	2817.00000
1564.70161	1.45691	0.03492	57011.94896	890.80855	2850.61308	1562.44323	0.03493	56858.00000	895.00000	2850.00000
1570.89597	1.45661	0.03495	57413.89650	869.93991	2845.89369	1568.63360	0.03492	57231.00000	876.00000	2844.00000
1577.09032	1.45570	0.03502	57979.03512	879.44141	2878.97094	1574.82397	0.03500	57786.00000	871.00000	2863.00000
1583.28468	1.45565	0.03502	58450.11400	894.72676	2910.46406	1581.01434	0.03503	58279.00000	894.00000	2904.00000
1589.47903	1.45604	0.03499	58825.25008	895.18773	2922.24683	1587.20471	0.03501	58712.00000	892.00000	2916.00000
1595.67339	1.45595	0.03500	59146.72764	885.70009	2924.74855	1593.39508	0.03498	59009.00000	896.00000	2929.00000
1601.86774	1.45537	0.03505	59574.82387	893.37146	2949.89292	1599.58545	0.03503	59419.00000	877.00000	2928.00000
1608.06210	1.45532	0.03505	59920.72690	909.46488	2977.77547	1605.77582	0.03505	59809.00000	920.00000	2984.00000
1614.25645	1.45513	0.03506	60220.95853	887.30010	2967.82579	1611.96619	0.03506	60102.00000	882.00000	2958.00000
1620.45081	1.45478	0.03509	60438.83040	897.12192	2986.61945	1618.15656	0.03508	60391.00000	905.00000	2992.00000
1626.64516	1.45460	0.03511	60579.30309	884.35356	2980.08377	1624.34693	0.03510	60502.00000	878.00000	2971.00000
1632.83952	1.45424	0.03514	60848.95373	899.57786	3006.00816	1630.53730	0.03512	60754.00000	903.00000	3005.00000
1639.03387	1.45378	0.03517	60928.35809	870.27700	2982.76401	1636.72767	0.03517	60938.00000	879.00000	2991.00000
1645.22823	1.45370	0.03518	60778.06969	873.98452	2981.43352	1642.91804	0.03518	60849.00000	868.00000	2978.00000
1651.42258	1.45258	0.03527	59777.88214	914.49031	2990.61049	1649.10841	0.03522	60357.00000	896.00000	2990.00000
1657.61694	1.45128	0.03538	57642.70006	920.63108	2927.33271	1655.29878	0.03536	58452.00000	931.00000	2965.00000
1663.81129	1.45185	0.03533	56689.89176	898.36344	2869.51490	1661.48915	0.03535	56762.00000	897.00000	2872.00000
1670.00565	1.45101	0.03540	55553.85124	917.06266	2851.04019	1667.67952	0.03534	56404.00000	914.00000	2875.00000
1676.20000	1.44914	0.03555	52318.47966	879.24303	2708.05491	1673.86989	0.03552	53497.00000	901.00000	2769.00000
0.00000	0.00000	0.00000	0.00000	0.00000	0.00000	1680.06026	0.03558	50136.00000	860.00000	2613.00000
0.00000	0.00000	0.00000	0.00000	0.00000	0.00000	1686.25063	0.03564	46019.00000	923.00000	2530.00000
0.00000	0.00000	0.00000	0.00000	0.00000	0.00000	1692.44100	0.03564	46019.00000	923.00000	2530.00000
