'File ¾Æ_1_2016Ò»ÔÂ28_1113.xls
'Part ID ¾Æ_1
'Scan Created 2016/1/28 11:13:02
'Instrument S1-00205
'Version 1.5.7
'Integration Time 10100 µs
'Number of Scans 50
'Units Absorbance
'Thermistor 47.43
Wavelength	Absorbance	Normalized	100%	dark	Raw 1	Native Wvl	Native Norm	Native 100%	Native dark	Native 1
908.10000	1.40095	0.03972	3595.82598	881.87120	989.86157	906.26400	0.04066	3684.00000	880.00000	994.00000
914.29435	1.40538	0.03932	3338.07467	866.26472	963.35874	912.45437	0.03877	3404.00000	876.00000	974.00000
920.48871	1.38110	0.04158	3265.72768	878.51909	977.82272	918.64474	0.04130	3257.00000	860.00000	959.00000
926.68306	1.38528	0.04118	3334.01990	918.74175	1018.19443	924.83511	0.04125	3324.00000	924.00000	1023.00000
932.87742	1.37859	0.04182	3389.36197	864.93184	970.52848	931.02548	0.04153	3355.00000	875.00000	978.00000
939.07177	1.37169	0.04249	3619.59224	884.95115	1001.13220	937.21585	0.04242	3537.00000	873.00000	986.00000
945.26613	1.37335	0.04233	3856.44440	889.93616	1015.52203	943.40622	0.04238	3802.00000	900.00000	1023.00000
951.46048	1.38061	0.04163	4005.12223	859.91735	990.84393	949.59659	0.04199	3955.00000	859.00000	989.00000
957.65484	1.39865	0.03993	4215.51392	893.73656	1026.37425	955.78696	0.04045	4148.00000	885.00000	1017.00000
963.84919	1.40906	0.03899	4374.23623	878.43417	1014.75749	961.97733	0.03910	4344.00000	891.00000	1026.00000
970.04355	1.41447	0.03851	4523.41127	896.06510	1035.70274	968.16770	0.03881	4453.00000	871.00000	1010.00000
976.23790	1.42047	0.03798	4726.50938	925.04592	1069.45795	974.35807	0.03789	4693.00000	945.00000	1087.00000
982.43226	1.41484	0.03847	4835.26800	856.06452	1009.12131	980.54844	0.03848	4778.00000	854.00000	1005.00000
988.62661	1.41817	0.03818	5079.18703	905.14928	1064.53950	986.73881	0.03818	5013.00000	901.00000	1058.00000
994.82097	1.41761	0.03823	5288.13901	870.37131	1039.23078	992.92918	0.03829	5216.00000	881.00000	1047.00000
1001.01532	1.41968	0.03805	5547.24444	876.96250	1054.66570	999.11955	0.03802	5470.00000	867.00000	1042.00000
1007.20968	1.41626	0.03835	5821.73207	889.84005	1078.96568	1005.30992	0.03828	5729.00000	896.00000	1081.00000
1013.40403	1.41644	0.03833	6108.36987	875.33513	1075.91999	1011.50029	0.03836	6031.00000	870.00000	1068.00000
1019.59839	1.41294	0.03864	6349.51155	919.49996	1129.33993	1017.69066	0.03843	6269.00000	908.00000	1114.00000
1025.79274	1.40158	0.03967	6610.09178	908.88037	1135.02449	1023.88103	0.03936	6536.00000	921.00000	1142.00000
1031.98710	1.39358	0.04040	6863.27600	885.10537	1126.63664	1030.07140	0.04022	6776.00000	883.00000	1120.00000
1038.18145	1.38605	0.04111	7137.95533	879.30949	1136.62278	1036.26177	0.04084	7062.00000	892.00000	1144.00000
1044.37581	1.38027	0.04166	7415.45215	852.78191	1126.16501	1042.45214	0.04161	7313.00000	848.00000	1117.00000
1050.57016	1.38070	0.04162	7763.75520	889.74850	1175.85913	1048.64251	0.04159	7664.00000	884.00000	1166.00000
1056.76452	1.37743	0.04193	8043.98752	873.54577	1174.23524	1054.83288	0.04183	7958.00000	881.00000	1177.00000
1062.95887	1.37430	0.04224	8346.47029	875.55305	1191.09414	1061.02325	0.04215	8246.00000	868.00000	1179.00000
1069.15323	1.37008	0.04265	8651.05608	883.28349	1214.60294	1067.21362	0.04248	8564.00000	890.00000	1216.00000
1075.34758	1.36861	0.04280	8931.01237	859.29405	1204.69049	1073.40399	0.04288	8836.00000	860.00000	1202.00000
1081.54194	1.37130	0.04253	9243.78719	871.40916	1227.52681	1079.59436	0.04252	9149.00000	870.00000	1222.00000
1087.73629	1.37052	0.04261	9580.78777	901.76500	1271.52085	1085.78473	0.04266	9462.00000	883.00000	1249.00000
1093.93065	1.37452	0.04222	9940.76391	922.65990	1303.39268	1091.97510	0.04232	9841.00000	933.00000	1310.00000
1100.12500	1.37874	0.04181	10254.38783	869.25749	1261.60349	1098.16547	0.04198	10144.00000	878.00000	1267.00000
1106.31935	1.38273	0.04143	10641.04469	875.00467	1279.58946	1104.35584	0.04147	10519.00000	873.00000	1273.00000
1112.51371	1.38399	0.04131	11015.80766	872.41348	1291.38979	1110.54621	0.04140	10897.00000	874.00000	1289.00000
1118.70806	1.39212	0.04054	11401.60672	872.77123	1299.59673	1116.73658	0.04085	11276.00000	871.00000	1296.00000
1124.90242	1.40345	0.03950	11814.30888	885.70510	1317.36205	1122.92695	0.03982	11680.00000	881.00000	1311.00000
1131.09677	1.41782	0.03821	12236.17715	886.26842	1319.92599	1129.11732	0.03871	12103.00000	890.00000	1324.00000
1137.29113	1.43683	0.03657	12606.57558	854.95675	1284.77066	1135.30769	0.03706	12498.00000	867.00000	1298.00000
1143.48548	1.44874	0.03558	12995.31207	851.62722	1283.75530	1141.49806	0.03581	12851.00000	843.00000	1273.00000
1149.67984	1.45459	0.03511	13491.13514	894.93569	1337.15041	1147.68843	0.03526	13335.00000	884.00000	1323.00000
1155.87419	1.45814	0.03482	13953.07917	885.15852	1340.23278	1153.87880	0.03486	13805.00000	896.00000	1346.00000
1162.06855	1.45891	0.03476	14446.12872	862.12568	1334.29603	1160.06917	0.03481	14279.00000	862.00000	1329.00000
1168.26290	1.46100	0.03459	14959.02414	891.75197	1378.40864	1166.25954	0.03463	14800.00000	881.00000	1363.00000
1174.45726	1.46296	0.03444	15420.71473	898.79570	1398.87205	1172.44991	0.03452	15273.00000	903.00000	1399.00000
1180.65161	1.46347	0.03440	15876.41905	861.08105	1377.60082	1178.64028	0.03434	15728.00000	875.00000	1385.00000
1186.84597	1.46106	0.03459	16371.22020	852.06070	1388.82880	1184.83065	0.03458	16201.00000	846.00000	1377.00000
1193.04032	1.46244	0.03448	16894.18264	880.38932	1432.54781	1191.02102	0.03450	16730.00000	875.00000	1422.00000
1199.23468	1.46188	0.03452	17400.55626	883.09277	1453.34039	1197.21139	0.03450	17229.00000	882.00000	1446.00000
1205.42903	1.46177	0.03453	17922.85290	876.52702	1465.17871	1203.40176	0.03455	17758.00000	882.00000	1465.00000
1211.62339	1.46168	0.03454	18412.23826	867.41129	1473.42221	1209.59213	0.03451	18250.00000	866.00000	1466.00000
1217.81774	1.46084	0.03461	18946.64823	877.09601	1502.41563	1215.78250	0.03461	18763.00000	876.00000	1495.00000
1224.01210	1.46150	0.03455	19522.38589	879.59709	1523.78803	1221.97287	0.03457	19334.00000	877.00000	1515.00000
1230.20645	1.46080	0.03461	20046.82356	877.27220	1540.74287	1228.16324	0.03458	19884.00000	882.00000	1539.00000
1236.40081	1.46066	0.03462	20578.92550	894.33634	1575.81620	1234.35361	0.03465	20387.00000	878.00000	1554.00000
1242.59516	1.46060	0.03463	21116.97255	904.50586	1604.39419	1240.54398	0.03458	20962.00000	919.00000	1612.00000
1248.78952	1.45885	0.03477	21555.61107	852.78714	1572.51779	1246.73435	0.03476	21399.00000	858.00000	1572.00000
1254.98387	1.45998	0.03468	22112.97196	897.03001	1632.70744	1252.92472	0.03470	21917.00000	878.00000	1608.00000
1261.17823	1.45900	0.03475	22669.33634	902.45329	1658.94004	1259.11509	0.03470	22498.00000	915.00000	1664.00000
1267.37258	1.45790	0.03484	23144.86310	840.51764	1617.62689	1265.30546	0.03484	22985.00000	857.00000	1628.00000
1273.56694	1.45810	0.03483	23720.39347	860.92978	1657.03649	1271.49583	0.03481	23506.00000	841.00000	1630.00000
1279.76129	1.45772	0.03486	24372.77955	913.59084	1731.28510	1277.68620	0.03487	24166.00000	906.00000	1717.00000
1285.95565	1.45869	0.03478	24945.52650	893.87771	1730.36276	1283.87657	0.03480	24754.00000	903.00000	1733.00000
1292.15000	1.45892	0.03476	25532.41484	877.59600	1734.59622	1290.06694	0.03476	25332.00000	880.00000	1730.00000
1298.34435	1.45937	0.03472	26175.67024	884.75253	1762.95864	1296.25731	0.03475	25949.00000	881.00000	1752.00000
1304.53871	1.46038	0.03464	26805.92834	868.00311	1766.58065	1302.44769	0.03467	26610.00000	881.00000	1773.00000
1310.73306	1.46170	0.03454	27432.03993	867.23944	1784.72610	1308.63806	0.03458	27196.00000	853.00000	1764.00000
1316.92742	1.46214	0.03450	28161.82657	892.73544	1833.63158	1314.82843	0.03449	27925.00000	899.00000	1831.00000
1323.12177	1.46229	0.03449	28842.74169	862.95220	1827.98585	1321.01880	0.03453	28606.00000	864.00000	1822.00000
1329.31613	1.46313	0.03442	29519.54369	871.94640	1858.14964	1327.20917	0.03441	29300.00000	874.00000	1852.00000
1335.51048	1.46262	0.03447	30183.25265	863.66515	1874.15115	1333.39954	0.03449	29944.00000	862.00000	1865.00000
1341.70484	1.46401	0.03435	30926.51890	893.32929	1925.12182	1339.58991	0.03437	30673.00000	881.00000	1905.00000
1347.89919	1.46321	0.03442	31587.63481	894.88004	1951.27969	1345.78028	0.03439	31380.00000	904.00000	1952.00000
1354.09355	1.46312	0.03443	32227.78710	859.30420	1939.16246	1351.97065	0.03445	31988.00000	867.00000	1939.00000
1360.28790	1.46334	0.03441	32929.95072	867.11433	1970.36348	1358.16102	0.03439	32704.00000	861.00000	1956.00000
1366.48226	1.46269	0.03446	33569.06337	866.55753	1993.46115	1364.35139	0.03446	33341.00000	873.00000	1992.00000
1372.67661	1.46224	0.03450	34261.83351	843.87902	1996.66802	1370.54176	0.03445	34024.00000	848.00000	1991.00000
1378.87097	1.46153	0.03455	34838.67465	870.52277	2044.16020	1376.73213	0.03457	34668.00000	855.00000	2024.00000
1385.06532	1.46163	0.03454	35121.03064	877.10458	2060.04165	1382.92250	0.03450	35059.00000	888.00000	2067.00000
1391.25968	1.46071	0.03462	35289.43299	872.38486	2063.78801	1389.11287	0.03464	35214.00000	858.00000	2048.00000
1397.45403	1.46095	0.03460	35460.60298	899.47130	2095.22471	1395.30324	0.03456	35427.00000	906.00000	2099.00000
1403.64839	1.46000	0.03467	35666.10671	869.36576	2075.87174	1401.49361	0.03469	35545.00000	870.00000	2073.00000
1409.84274	1.46137	0.03456	36323.03255	883.09719	2108.07354	1407.68398	0.03458	36050.00000	883.00000	2099.00000
1416.03710	1.46086	0.03461	37284.68636	884.03189	2143.68528	1413.87435	0.03459	36926.00000	879.00000	2126.00000
1422.23145	1.46094	0.03460	38329.42739	892.53935	2187.79468	1420.06472	0.03461	37970.00000	895.00000	2178.00000
1428.42581	1.46121	0.03458	39434.74114	878.71439	2211.86108	1426.25509	0.03458	39022.00000	881.00000	2200.00000
1434.62016	1.46089	0.03460	40575.07439	880.06733	2253.64255	1432.44546	0.03459	40203.00000	880.00000	2240.00000
1440.81452	1.46042	0.03464	41493.68414	879.47622	2286.36514	1438.63583	0.03464	41184.00000	879.00000	2275.00000
1447.00887	1.46028	0.03465	42510.04768	905.41306	2347.07470	1444.82620	0.03464	42113.00000	891.00000	2319.00000
1453.20323	1.46011	0.03466	43543.72896	892.86717	2371.34290	1451.01657	0.03467	43229.00000	914.00000	2381.00000
1459.39758	1.46057	0.03463	44405.02794	864.61268	2372.32225	1457.20694	0.03464	44070.00000	855.00000	2352.00000
1465.59194	1.46050	0.03463	45481.34063	906.97918	2450.77010	1463.39731	0.03462	45094.00000	903.00000	2433.00000
1471.78629	1.46049	0.03463	46480.51435	890.87025	2469.81474	1469.58768	0.03465	46150.00000	894.00000	2462.00000
1477.98065	1.46005	0.03467	47320.91755	868.50781	2479.03603	1475.77805	0.03463	47029.00000	883.00000	2481.00000
1484.17500	1.45863	0.03478	48225.65661	857.63729	2505.21885	1481.96842	0.03476	47881.00000	849.00000	2484.00000
1490.36935	1.45879	0.03477	49092.30051	893.89890	2569.77992	1488.15879	0.03477	48824.00000	887.00000	2554.00000
1496.56371	1.45869	0.03478	49778.04514	887.35808	2587.68112	1494.34916	0.03477	49521.00000	891.00000	2582.00000
1502.75806	1.45812	0.03482	50469.48096	863.36996	2590.85547	1500.53953	0.03480	50241.00000	875.00000	2593.00000
1508.95242	1.45797	0.03484	51158.04064	897.54966	2648.41860	1506.72990	0.03485	50884.00000	867.00000	2610.00000
1515.14677	1.45784	0.03485	51878.91086	902.58342	2678.96842	1512.92027	0.03482	51650.00000	933.00000	2699.00000
1521.34113	1.45700	0.03491	52577.57434	850.45197	2656.43878	1519.11064	0.03491	52288.00000	838.00000	2634.00000
1527.53548	1.45681	0.03493	53324.26188	911.75147	2742.48391	1525.30101	0.03491	53098.00000	907.00000	2729.00000
1533.72984	1.45631	0.03497	53919.19306	885.74627	2740.28427	1531.49138	0.03497	53680.00000	890.00000	2736.00000
1539.92419	1.45615	0.03498	54593.00479	874.24673	2753.48153	1537.68175	0.03496	54367.00000	884.00000	2754.00000
1546.11855	1.45571	0.03502	55208.54831	866.87961	2769.80701	1543.87212	0.03502	54973.00000	860.00000	2755.00000
1552.31290	1.45557	0.03503	55811.51925	888.84465	2812.73157	1550.06249	0.03501	55614.00000	887.00000	2803.00000
1558.50726	1.45442	0.03512	56431.29012	888.46797	2839.26527	1556.25286	0.03509	56172.00000	885.00000	2825.00000
1564.70161	1.45423	0.03514	57011.94896	890.80855	2862.76806	1562.44323	0.03515	56858.00000	895.00000	2862.00000
1570.89597	1.45435	0.03513	57413.89650	869.93991	2856.20893	1568.63360	0.03512	57231.00000	876.00000	2855.00000
1577.09032	1.45398	0.03516	57979.03512	879.44141	2886.91264	1574.82397	0.03516	57786.00000	871.00000	2872.00000
1583.28468	1.45398	0.03516	58450.11400	894.72676	2918.23729	1581.01434	0.03515	58279.00000	894.00000	2911.00000
1589.47903	1.45374	0.03518	58825.25008	895.18773	2932.98742	1587.20471	0.03518	58712.00000	892.00000	2926.00000
1595.67339	1.45363	0.03519	59146.72764	885.70009	2935.65924	1593.39508	0.03517	59009.00000	896.00000	2940.00000
1601.86774	1.45296	0.03524	59574.82387	893.37146	2961.30706	1599.58545	0.03522	59419.00000	877.00000	2939.00000
1608.06210	1.45284	0.03525	59920.72690	909.46488	2989.62158	1605.77582	0.03525	59809.00000	920.00000	2996.00000
1614.25645	1.45240	0.03529	60220.95853	887.30010	2980.92902	1611.96619	0.03526	60102.00000	882.00000	2970.00000
1620.45081	1.45168	0.03534	60438.83040	897.12192	3001.56724	1618.15656	0.03534	60391.00000	905.00000	3007.00000
1626.64516	1.45171	0.03534	60579.30309	884.35356	2994.06835	1624.34693	0.03534	60502.00000	878.00000	2985.00000
1632.83952	1.45097	0.03540	60848.95373	899.57786	3021.90020	1630.53730	0.03537	60754.00000	903.00000	3020.00000
1639.03387	1.45028	0.03546	60928.35809	870.27700	2999.81842	1636.72767	0.03545	60938.00000	879.00000	3008.00000
1645.22823	1.45012	0.03547	60778.06969	873.98452	2998.88094	1642.91804	0.03546	60849.00000	868.00000	2995.00000
1651.42258	1.44894	0.03557	59777.88214	914.49031	3008.14692	1649.10841	0.03552	60357.00000	896.00000	3008.00000
1657.61694	1.44742	0.03569	57642.70006	920.63108	2945.21573	1655.29878	0.03566	58452.00000	931.00000	2982.00000
1663.81129	1.44736	0.03570	56689.89176	898.36344	2890.00979	1661.48915	0.03571	56762.00000	897.00000	2892.00000
1670.00565	1.44670	0.03575	55553.85124	917.06266	2870.33653	1667.67952	0.03570	56404.00000	914.00000	2895.00000
1676.20000	1.44504	0.03589	52318.47966	879.24303	2725.43094	1673.86989	0.03586	53497.00000	901.00000	2787.00000
0.00000	0.00000	0.00000	0.00000	0.00000	0.00000	1680.06026	0.03592	50136.00000	860.00000	2630.00000
0.00000	0.00000	0.00000	0.00000	0.00000	0.00000	1686.25063	0.03603	46019.00000	923.00000	2548.00000
0.00000	0.00000	0.00000	0.00000	0.00000	0.00000	1692.44100	0.03603	46019.00000	923.00000	2548.00000
