'File ¾Æ_4_2016Ò»ÔÂ28_1113.xls
'Part ID ¾Æ_4
'Scan Created 2016/1/28 11:13:20
'Instrument S1-00205
'Version 1.5.7
'Integration Time 10100 µs
'Number of Scans 50
'Units Absorbance
'Thermistor 47.10
Wavelength	Absorbance	Normalized	100%	dark	Raw 1	Native Wvl	Native Norm	Native 100%	Native dark	Native 1
908.10000	1.37605	0.04207	3595.82598	881.87120	996.19684	906.26400	0.04280	3684.00000	880.00000	1000.00000
914.29435	1.37441	0.04223	3338.07467	866.26472	970.55183	912.45437	0.04153	3404.00000	876.00000	981.00000
920.48871	1.34463	0.04522	3265.72768	878.51909	986.52570	918.64474	0.04464	3257.00000	860.00000	967.00000
926.68306	1.34412	0.04528	3334.01990	918.74175	1028.05622	924.83511	0.04542	3324.00000	924.00000	1033.00000
932.87742	1.33465	0.04628	3389.36197	864.93184	981.82283	931.02548	0.04556	3355.00000	875.00000	988.00000
939.07177	1.31706	0.04819	3619.59224	884.95115	1016.65613	937.21585	0.04805	3537.00000	873.00000	1001.00000
945.26613	1.32478	0.04734	3856.44440	889.93616	1030.41204	943.40622	0.04755	3802.00000	900.00000	1038.00000
951.46048	1.33382	0.04636	4005.12223	859.91735	1005.73211	949.59659	0.04683	3955.00000	859.00000	1004.00000
957.65484	1.35690	0.04396	4215.51392	893.73656	1039.75486	955.78696	0.04474	4148.00000	885.00000	1031.00000
963.84919	1.37334	0.04233	4374.23623	878.43417	1026.44051	961.97733	0.04257	4344.00000	891.00000	1038.00000
970.04355	1.37702	0.04197	4523.41127	896.06510	1048.29947	968.16770	0.04216	4453.00000	871.00000	1022.00000
976.23790	1.38586	0.04113	4726.50938	925.04592	1081.40313	974.35807	0.04136	4693.00000	945.00000	1100.00000
982.43226	1.39068	0.04067	4835.26800	856.06452	1017.90663	980.54844	0.04077	4778.00000	854.00000	1014.00000
988.62661	1.39061	0.04068	5079.18703	905.14928	1074.96600	986.73881	0.04061	5013.00000	901.00000	1068.00000
994.82097	1.38943	0.04079	5288.13901	870.37131	1050.56962	992.92918	0.04083	5216.00000	881.00000	1058.00000
1001.01532	1.39113	0.04063	5547.24444	876.96250	1066.71685	999.11955	0.04063	5470.00000	867.00000	1054.00000
1007.20968	1.38445	0.04126	5821.73207	889.84005	1093.37732	1005.30992	0.04097	5729.00000	896.00000	1094.00000
1013.40403	1.37763	0.04192	6108.36987	875.33513	1094.64602	1011.50029	0.04185	6031.00000	870.00000	1086.00000
1019.59839	1.37486	0.04218	6349.51155	919.49996	1148.56756	1017.69066	0.04197	6269.00000	908.00000	1133.00000
1025.79274	1.36044	0.04361	6610.09178	908.88037	1157.50752	1023.88103	0.04310	6536.00000	921.00000	1163.00000
1031.98710	1.34747	0.04493	6863.27600	885.10537	1153.67424	1030.07140	0.04463	6776.00000	883.00000	1146.00000
1038.18145	1.33767	0.04595	7137.95533	879.30949	1166.96016	1036.26177	0.04554	7062.00000	892.00000	1173.00000
1044.37581	1.32713	0.04708	7415.45215	852.78191	1161.73918	1042.45214	0.04687	7313.00000	848.00000	1151.00000
1050.57016	1.32296	0.04754	7763.75520	889.74850	1216.54802	1048.64251	0.04735	7664.00000	884.00000	1205.00000
1056.76452	1.31690	0.04821	8043.98752	873.54577	1219.18550	1054.83288	0.04804	7958.00000	881.00000	1221.00000
1062.95887	1.31219	0.04873	8346.47029	875.55305	1239.63043	1061.02325	0.04852	8246.00000	868.00000	1226.00000
1069.15323	1.30579	0.04946	8651.05608	883.28349	1267.44525	1067.21362	0.04926	8564.00000	890.00000	1268.00000
1075.34758	1.30455	0.04960	8931.01237	859.29405	1259.60293	1073.40399	0.04965	8836.00000	860.00000	1256.00000
1081.54194	1.30639	0.04939	9243.78719	871.40916	1284.91528	1079.59436	0.04940	9149.00000	870.00000	1279.00000
1087.73629	1.30874	0.04912	9580.78777	901.76500	1328.05438	1085.78473	0.04931	9462.00000	883.00000	1306.00000
1093.93065	1.31457	0.04847	9940.76391	922.65990	1359.75226	1091.97510	0.04861	9841.00000	933.00000	1366.00000
1100.12500	1.31815	0.04807	10254.38783	869.25749	1320.35365	1098.16547	0.04824	10144.00000	878.00000	1325.00000
1106.31935	1.32449	0.04737	10641.04469	875.00467	1337.64703	1104.35584	0.04758	10519.00000	873.00000	1332.00000
1112.51371	1.33145	0.04662	11015.80766	872.41348	1345.26573	1110.54621	0.04689	10897.00000	874.00000	1344.00000
1118.70806	1.34104	0.04560	11401.60672	872.77123	1352.89155	1116.73658	0.04594	11276.00000	871.00000	1349.00000
1124.90242	1.35684	0.04397	11814.30888	885.70510	1366.25409	1122.92695	0.04463	11680.00000	881.00000	1363.00000
1131.09677	1.38890	0.04084	12236.17715	886.26842	1349.74539	1129.11732	0.04200	12103.00000	890.00000	1361.00000
1137.29113	1.42259	0.03779	12606.57558	854.95675	1299.15090	1135.30769	0.03852	12498.00000	867.00000	1315.00000
1143.48548	1.43909	0.03638	12995.31207	851.62722	1293.42106	1141.49806	0.03681	12851.00000	843.00000	1285.00000
1149.67984	1.45188	0.03533	13491.13514	894.93569	1339.95822	1147.68843	0.03558	13335.00000	884.00000	1327.00000
1155.87419	1.45708	0.03491	13953.07917	885.15852	1341.31806	1153.87880	0.03501	13805.00000	896.00000	1348.00000
1162.06855	1.46000	0.03467	14446.12872	862.12568	1333.13586	1160.06917	0.03473	14279.00000	862.00000	1328.00000
1168.26290	1.46240	0.03448	14959.02414	891.75197	1376.82828	1166.25954	0.03456	14800.00000	881.00000	1362.00000
1174.45726	1.46552	0.03424	15420.71473	898.79570	1395.95345	1172.44991	0.03431	15273.00000	903.00000	1396.00000
1180.65161	1.46511	0.03427	15876.41905	861.08105	1375.65991	1178.64028	0.03420	15728.00000	875.00000	1383.00000
1186.84597	1.46424	0.03434	16371.22020	852.06070	1384.90945	1184.83065	0.03439	16201.00000	846.00000	1374.00000
1193.04032	1.46597	0.03420	16894.18264	880.38932	1428.09258	1191.02102	0.03418	16730.00000	875.00000	1417.00000
1199.23468	1.46433	0.03433	17400.55626	883.09277	1450.11543	1197.21139	0.03432	17229.00000	882.00000	1443.00000
1205.42903	1.46431	0.03433	17922.85290	876.52702	1461.76245	1203.40176	0.03431	17758.00000	882.00000	1461.00000
1211.62339	1.46339	0.03440	18412.23826	867.41129	1471.01357	1209.59213	0.03440	18250.00000	866.00000	1464.00000
1217.81774	1.46363	0.03438	18946.64823	877.09601	1498.42061	1215.78250	0.03438	18763.00000	876.00000	1491.00000
1224.01210	1.46336	0.03441	19522.38589	879.59709	1521.02274	1221.97287	0.03440	19334.00000	877.00000	1512.00000
1230.20645	1.46292	0.03444	20046.82356	877.27220	1537.49651	1228.16324	0.03442	19884.00000	882.00000	1536.00000
1236.40081	1.46206	0.03451	20578.92550	894.33634	1573.64049	1234.35361	0.03450	20387.00000	878.00000	1551.00000
1242.59516	1.46160	0.03455	21116.97255	904.50586	1602.76536	1240.54398	0.03453	20962.00000	919.00000	1611.00000
1248.78952	1.46025	0.03465	21555.61107	852.78714	1570.21903	1246.73435	0.03461	21399.00000	858.00000	1569.00000
1254.98387	1.45988	0.03468	22112.97196	897.03001	1632.85257	1252.92472	0.03470	21917.00000	878.00000	1608.00000
1261.17823	1.45982	0.03469	22669.33634	902.45329	1657.50766	1259.11509	0.03466	22498.00000	915.00000	1663.00000
1267.37258	1.45793	0.03484	23144.86310	840.51764	1617.58413	1265.30546	0.03480	22985.00000	857.00000	1627.00000
1273.56694	1.45808	0.03483	23720.39347	860.92978	1657.04972	1271.49583	0.03486	23506.00000	841.00000	1631.00000
1279.76129	1.45841	0.03480	24372.77955	913.59084	1730.00452	1277.68620	0.03478	24166.00000	906.00000	1715.00000
1285.95565	1.45833	0.03481	24945.52650	893.87771	1731.04337	1283.87657	0.03484	24754.00000	903.00000	1734.00000
1292.15000	1.46055	0.03463	25532.41484	877.59600	1731.38494	1290.06694	0.03468	25332.00000	880.00000	1728.00000
1298.34435	1.46109	0.03459	26175.67024	884.75253	1759.49453	1296.25731	0.03459	25949.00000	881.00000	1748.00000
1304.53871	1.46242	0.03448	26805.92834	868.00311	1762.35216	1302.44769	0.03455	26610.00000	881.00000	1770.00000
1310.73306	1.46505	0.03427	27432.03993	867.23944	1777.69882	1308.63806	0.03432	27196.00000	853.00000	1757.00000
1316.92742	1.46616	0.03419	28161.82657	892.73544	1824.93258	1314.82843	0.03423	27925.00000	899.00000	1824.00000
1323.12177	1.46752	0.03408	28842.74169	862.95220	1816.46766	1321.01880	0.03410	28606.00000	864.00000	1810.00000
1329.31613	1.46817	0.03403	29519.54369	871.94640	1846.73880	1327.20917	0.03405	29300.00000	874.00000	1842.00000
1335.51048	1.46903	0.03396	30183.25265	863.66515	1859.36830	1333.39954	0.03397	29944.00000	862.00000	1850.00000
1341.70484	1.46975	0.03390	30926.51890	893.32929	1911.56297	1339.58991	0.03394	30673.00000	881.00000	1892.00000
1347.89919	1.47003	0.03388	31587.63481	894.88004	1934.83933	1345.78028	0.03386	31380.00000	904.00000	1936.00000
1354.09355	1.46953	0.03392	32227.78710	859.30420	1923.33849	1351.97065	0.03393	31988.00000	867.00000	1923.00000
1360.28790	1.46980	0.03390	32929.95072	867.11433	1954.05888	1358.16102	0.03388	32704.00000	861.00000	1940.00000
1366.48226	1.46941	0.03393	33569.06337	866.55753	1976.15852	1364.35139	0.03394	33341.00000	873.00000	1975.00000
1372.67661	1.46928	0.03394	34261.83351	843.87902	1978.11747	1370.54176	0.03391	34024.00000	848.00000	1973.00000
1378.87097	1.46843	0.03401	34838.67465	870.52277	2025.67964	1376.73213	0.03401	34668.00000	855.00000	2005.00000
1385.06532	1.46868	0.03399	35121.03064	877.10458	2040.98170	1382.92250	0.03398	35059.00000	888.00000	2049.00000
1391.25968	1.46822	0.03402	35289.43299	872.38486	2043.36755	1389.11287	0.03403	35214.00000	858.00000	2027.00000
1397.45403	1.46824	0.03402	35460.60298	899.47130	2075.31306	1395.30324	0.03401	35427.00000	906.00000	2080.00000
1403.64839	1.46777	0.03406	35666.10671	869.36576	2054.50532	1401.49361	0.03406	35545.00000	870.00000	2051.00000
1409.84274	1.46900	0.03396	36323.03255	883.09719	2086.71688	1407.68398	0.03401	36050.00000	883.00000	2079.00000
1416.03710	1.46969	0.03391	37284.68636	884.03189	2118.33569	1413.87435	0.03390	36926.00000	879.00000	2101.00000
1422.23145	1.46891	0.03397	38329.42739	892.53935	2164.25988	1420.06472	0.03396	37970.00000	895.00000	2154.00000
1428.42581	1.46941	0.03393	39434.74114	878.71439	2186.94411	1426.25509	0.03395	39022.00000	881.00000	2176.00000
1434.62016	1.46980	0.03390	40575.07439	880.06733	2225.75329	1432.44546	0.03390	40203.00000	880.00000	2213.00000
1440.81452	1.46959	0.03392	41493.68414	879.47622	2256.94112	1438.63583	0.03392	41184.00000	879.00000	2246.00000
1447.00887	1.46949	0.03392	42510.04768	905.41306	2316.82145	1444.82620	0.03391	42113.00000	891.00000	2289.00000
1453.20323	1.46953	0.03392	43543.72896	892.86717	2339.61980	1451.01657	0.03394	43229.00000	914.00000	2350.00000
1459.39758	1.47028	0.03386	44405.02794	864.61268	2339.00268	1457.20694	0.03388	44070.00000	855.00000	2319.00000
1465.59194	1.47043	0.03385	45481.34063	906.97918	2415.87328	1463.39731	0.03385	45094.00000	903.00000	2399.00000
1471.78629	1.47037	0.03386	46480.51435	890.87025	2434.33382	1469.58768	0.03385	46150.00000	894.00000	2426.00000
1477.98065	1.47000	0.03388	47320.91755	868.50781	2442.52123	1475.77805	0.03387	47029.00000	883.00000	2446.00000
1484.17500	1.46945	0.03393	48225.65661	857.63729	2464.70460	1481.96842	0.03391	47881.00000	849.00000	2444.00000
1490.36935	1.46932	0.03394	49092.30051	893.89890	2529.64207	1488.15879	0.03394	48824.00000	887.00000	2514.00000
1496.56371	1.46939	0.03393	49778.04514	887.35808	2546.33790	1494.34916	0.03393	49521.00000	891.00000	2541.00000
1502.75806	1.46899	0.03396	50469.48096	863.36996	2548.17322	1500.53953	0.03395	50241.00000	875.00000	2551.00000
1508.95242	1.46914	0.03395	51158.04064	897.54966	2603.97201	1506.72990	0.03397	50884.00000	867.00000	2566.00000
1515.14677	1.46910	0.03395	51878.91086	902.58342	2633.50026	1512.92027	0.03393	51650.00000	933.00000	2654.00000
1521.34113	1.46877	0.03398	52577.57434	850.45197	2608.13111	1519.11064	0.03399	52288.00000	838.00000	2587.00000
1527.53548	1.46881	0.03398	53324.26188	911.75147	2692.62430	1525.30101	0.03395	53098.00000	907.00000	2679.00000
1533.72984	1.46798	0.03404	53919.19306	885.74627	2691.10037	1531.49138	0.03404	53680.00000	890.00000	2687.00000
1539.92419	1.46848	0.03400	54593.00479	874.24673	2700.85858	1537.68175	0.03401	54367.00000	884.00000	2703.00000
1546.11855	1.46853	0.03400	55208.54831	866.87961	2714.46102	1543.87212	0.03400	54973.00000	860.00000	2700.00000
1552.31290	1.46818	0.03403	55811.51925	888.84465	2757.67971	1550.06249	0.03401	55614.00000	887.00000	2748.00000
1558.50726	1.46787	0.03405	56431.29012	888.46797	2779.74365	1556.25286	0.03406	56172.00000	885.00000	2768.00000
1564.70161	1.46824	0.03402	57011.94896	890.80855	2800.15665	1562.44323	0.03402	56858.00000	895.00000	2799.00000
1570.89597	1.46808	0.03403	57413.89650	869.93991	2794.36372	1568.63360	0.03403	57231.00000	876.00000	2794.00000
1577.09032	1.46797	0.03404	57979.03512	879.44141	2823.29289	1574.82397	0.03403	57786.00000	871.00000	2808.00000
1583.28468	1.46754	0.03408	58450.11400	894.72676	2856.03333	1581.01434	0.03407	58279.00000	894.00000	2849.00000
1589.47903	1.46782	0.03406	58825.25008	895.18773	2868.00312	1587.20471	0.03407	58712.00000	892.00000	2862.00000
1595.67339	1.46788	0.03405	59146.72764	885.70009	2869.49194	1593.39508	0.03404	59009.00000	896.00000	2874.00000
1601.86774	1.46702	0.03412	59574.82387	893.37146	2895.46702	1599.58545	0.03410	59419.00000	877.00000	2873.00000
1608.06210	1.46696	0.03412	59920.72690	909.46488	2923.04758	1605.77582	0.03413	59809.00000	920.00000	2930.00000
1614.25645	1.46691	0.03413	60220.95853	887.30010	2912.12989	1611.96619	0.03411	60102.00000	882.00000	2902.00000
1620.45081	1.46651	0.03416	60438.83040	897.12192	2930.94909	1618.15656	0.03416	60391.00000	905.00000	2937.00000
1626.64516	1.46651	0.03416	60579.30309	884.35356	2923.41860	1624.34693	0.03415	60502.00000	878.00000	2914.00000
1632.83952	1.46613	0.03419	60848.95373	899.57786	2949.10718	1630.53730	0.03418	60754.00000	903.00000	2949.00000
1639.03387	1.46612	0.03419	60928.35809	870.27700	2923.55279	1636.72767	0.03418	60938.00000	879.00000	2932.00000
1645.22823	1.46561	0.03423	60778.06969	873.98452	2924.40643	1642.91804	0.03421	60849.00000	868.00000	2920.00000
1651.42258	1.46505	0.03427	59777.88214	914.49031	2931.90541	1649.10841	0.03426	60357.00000	896.00000	2933.00000
1657.61694	1.46443	0.03432	57642.70006	920.63108	2867.40020	1655.29878	0.03430	58452.00000	931.00000	2904.00000
1663.81129	1.46457	0.03431	56689.89176	898.36344	2812.63561	1661.48915	0.03433	56762.00000	897.00000	2815.00000
1670.00565	1.46421	0.03434	55553.85124	917.06266	2793.17534	1667.67952	0.03429	56404.00000	914.00000	2817.00000
1676.20000	1.46222	0.03450	52318.47966	879.24303	2653.79571	1673.86989	0.03445	53497.00000	901.00000	2713.00000
0.00000	0.00000	0.00000	0.00000	0.00000	0.00000	1680.06026	0.03454	50136.00000	860.00000	2562.00000
0.00000	0.00000	0.00000	0.00000	0.00000	0.00000	1686.25063	0.03459	46019.00000	923.00000	2483.00000
0.00000	0.00000	0.00000	0.00000	0.00000	0.00000	1692.44100	0.03459	46019.00000	923.00000	2483.00000
